seconds_elapsed,gyroscope_z,gyroscope_y,gyroscope_x,gyroscope_local_time,gravity_z,gravity_y,gravity_x,gravity_local_time,magnetometerUncalibrated_z,magnetometerUncalibrated_y,magnetometerUncalibrated_x,magnetometerUncalibrated_local_time,magnetometer_z,magnetometer_y,magnetometer_x,magnetometer_local_time,location_altitude,location_speedAccuracy,location_bearingAccuracy,location_latitude,location_altitudeAboveMeanSeaLevel,location_bearing,location_horizontalAccuracy,location_verticalAccuracy,location_longitude,location_speed,location_local_time,gyroscopeUncalibrated_z,gyroscopeUncalibrated_y,gyroscopeUncalibrated_x,gyroscopeUncalibrated_local_time,orientation_yaw,orientation_qx,orientation_qz,orientation_roll,orientation_qw,orientation_qy,orientation_pitch,orientation_local_time,accelerometerUncalibrated_z,accelerometerUncalibrated_y,accelerometerUncalibrated_x,accelerometerUncalibrated_local_time,accelerometer_z,accelerometer_y,accelerometer_x,accelerometer_local_time
0.000000,0.022835,-0.010623,0.009007,2025-10-15T16:36:45.203-07:00,-8.882070,-3.888641,1.461152,2025-10-15T16:36:45.203-07:00,-618.359883,39.924852,70.697415,2025-10-15T16:36:45.180-07:00,-47.970673,-5.475516,-1.875556,2025-10-15T16:36:45.203-07:00,392.249405,-1.000000,-1.000000,33.304023,422.679108,-1.000000,16.216938,8.734590,-111.680061,-1.000000,2025-10-15T16:36:45.170-07:00,0.022472,-0.013833,0.009348,2025-10-15T16:36:45.184-07:00,-2.341376,-0.152078,0.892489,0.163001,-0.395315,0.154819,0.407768,2025-10-15T16:36:45.203-07:00,-0.898404,-0.389062,0.146294,2025-10-15T16:36:45.194-07:00,0.064805,0.070292,-0.034881,2025-10-15T16:36:45.203-07:00
1.000000,0.129613,0.013967,-0.002973,2025-10-15T16:36:46.127-07:00,-8.932343,-3.773773,1.456259,2025-10-15T16:36:46.127-07:00,-617.878179,40.833999,70.894147,2025-10-15T16:36:46.135-07:00,-47.534497,-4.536612,-1.681726,2025-10-15T16:36:46.127-07:00,,,,,,,,,,,,0.131544,0.012030,-0.004185,2025-10-15T16:36:46.128-07:00,-2.321341,-0.150618,0.889844,0.161583,-0.404136,0.147884,0.395019,2025-10-15T16:36:46.127-07:00,-0.899348,-0.392066,0.149374,2025-10-15T16:36:46.128-07:00,0.104304,-0.063396,0.008804,2025-10-15T16:36:46.127-07:00
2.000000,0.676961,-0.075345,-0.153531,2025-10-15T16:36:47.131-07:00,-9.107788,-3.434497,-0.738633,2025-10-15T16:36:47.131-07:00,-616.385504,44.250714,67.849854,2025-10-15T16:36:47.131-07:00,-46.132892,-1.154745,-4.709605,2025-10-15T16:36:47.131-07:00,,,,,,,,,,,,0.678985,-0.081675,-0.151313,2025-10-15T16:36:47.135-07:00,-1.850142,-0.075643,0.785041,-0.079578,-0.584022,0.169126,0.358538,2025-10-15T16:36:47.131-07:00,-0.892794,-0.313339,-0.060555,2025-10-15T16:36:47.135-07:00,0.353437,0.350939,0.166757,2025-10-15T16:36:47.131-07:00
3.000000,-0.070950,0.069375,0.126144,2025-10-15T16:36:48.135-07:00,-9.325626,-2.508462,-1.526939,2025-10-15T16:36:48.135-07:00,-617.430895,47.838896,69.693232,2025-10-15T16:36:48.127-07:00,-47.371003,2.473269,-2.848425,2025-10-15T16:36:48.135-07:00,,,,,,,,,,,,-0.070347,0.071414,0.117931,2025-10-15T16:36:48.129-07:00,-1.456707,-0.042728,0.664827,-0.161848,-0.730322,0.145759,0.259361,2025-10-15T16:36:48.135-07:00,-0.979712,-0.254962,-0.165996,2025-10-15T16:36:48.129-07:00,-0.285958,0.016337,-0.107421,2025-10-15T16:36:48.135-07:00
4.000000,-0.024046,0.023270,-0.005619,2025-10-15T16:36:49.130-07:00,-9.215886,-3.210657,-0.955711,2025-10-15T16:36:49.130-07:00,-617.353083,44.999232,71.818733,2025-10-15T16:36:49.133-07:00,-47.153897,-0.411005,-0.717084,2025-10-15T16:36:49.130-07:00,,,,,,,,,,,,-0.025506,0.021266,-0.007753,2025-10-15T16:36:49.133-07:00,-1.467403,-0.089049,0.665803,-0.103343,-0.725645,0.148852,0.333550,2025-10-15T16:36:49.130-07:00,-0.931380,-0.322704,-0.097836,2025-10-15T16:36:49.133-07:00,0.081281,0.044543,-0.003981,2025-10-15T16:36:49.130-07:00
5.000000,-0.002226,0.003994,-0.006322,2025-10-15T16:36:50.134-07:00,-9.243697,-3.171600,-0.813322,2025-10-15T16:36:50.134-07:00,-617.563911,45.049340,72.335999,2025-10-15T16:36:50.129-07:00,-47.383641,-0.364741,-0.188155,2025-10-15T16:36:50.134-07:00,,,,,,,,,,,,-0.003201,0.002866,-0.007488,2025-10-15T16:36:50.127-07:00,-1.479384,-0.091805,0.669609,-0.087759,-0.723132,0.142354,0.329338,2025-10-15T16:36:50.134-07:00,-0.934032,-0.322012,-0.081771,2025-10-15T16:36:50.127-07:00,0.086118,0.013647,0.012817,2025-10-15T16:36:50.134-07:00
6.000000,-0.007951,0.009488,-0.017392,2025-10-15T16:36:51.128-07:00,-9.216091,-3.267639,-0.739010,2025-10-15T16:36:51.128-07:00,-617.523117,44.631139,72.486727,2025-10-15T16:36:51.135-07:00,-47.345296,-0.785986,-0.037787,2025-10-15T16:36:51.128-07:00,392.249405,-1.000000,-1.000000,33.304023,422.679108,-1.000000,15.801344,8.751316,-111.680061,-1.000000,2025-10-15T16:36:51.191-07:00,-0.009173,0.007519,-0.019169,2025-10-15T16:36:51.132-07:00,-1.485076,-0.097787,0.670869,-0.080020,-0.720986,0.143255,0.339720,2025-10-15T16:36:51.128-07:00,-0.926275,-0.327932,-0.077789,2025-10-15T16:36:51.132-07:00,0.127388,0.047615,-0.023847,2025-10-15T16:36:51.128-07:00
7.000000,0.350566,-0.010850,-0.349235,2025-10-15T16:36:52.132-07:00,-9.601396,-1.137830,-0.998565,2025-10-15T16:36:52.132-07:00,-617.336742,52.708217,73.703854,2025-10-15T16:36:52.131-07:00,-46.966945,7.166694,1.215879,2025-10-15T16:36:52.132-07:00,,,,,,,,,,,,0.353213,-0.013731,-0.352943,2025-10-15T16:36:52.136-07:00,-1.333036,-0.012219,0.615208,-0.103208,-0.778868,0.080165,0.117300,2025-10-15T16:36:52.132-07:00,-0.967999,-0.108517,-0.097851,2025-10-15T16:36:52.136-07:00,0.114821,0.056907,0.039182,2025-10-15T16:36:52.132-07:00
8.000000,0.018859,0.046372,-0.003622,2025-10-15T16:36:53.136-07:00,-9.758275,0.673616,-0.674968,2025-10-15T16:36:53.136-07:00,-616.894414,58.531835,77.533301,2025-10-15T16:36:53.137-07:00,-46.334330,13.092183,5.085342,2025-10-15T16:36:53.136-07:00,,,,,,,,,,,,0.017755,0.045136,-0.006874,2025-10-15T16:36:53.130-07:00,-1.087142,0.047291,0.515486,-0.069067,-0.855396,0.011708,-0.068747,2025-10-15T16:36:53.136-07:00,-0.994403,0.068329,-0.071013,2025-10-15T16:36:53.130-07:00,0.006525,-0.003392,-0.021683,2025-10-15T16:36:53.136-07:00
9.000000,0.097783,-0.020698,0.019061,2025-10-15T16:36:54.130-07:00,-9.763352,0.655656,-0.631556,2025-10-15T16:36:54.130-07:00,-617.709932,58.023268,78.134770,2025-10-15T16:36:54.132-07:00,-47.165883,12.584073,5.698763,2025-10-15T16:36:54.130-07:00,,,,,,,,,,,,0.097516,-0.022536,0.018655,2025-10-15T16:36:54.134-07:00,-1.000805,0.044695,0.478229,-0.064592,-0.876768,0.012241,-0.066911,2025-10-15T16:36:54.130-07:00,-0.986056,0.063824,-0.065372,2025-10-15T16:36:54.134-07:00,0.092609,-0.029461,-0.009822,2025-10-15T16:36:54.130-07:00
10.000000,0.037765,-0.023098,0.002962,2025-10-15T16:36:55.134-07:00,-9.747870,0.620563,-0.871407,2025-10-15T16:36:55.134-07:00,-618.446182,57.381082,77.364317,2025-10-15T16:36:55.128-07:00,-47.902757,11.940224,4.940247,2025-10-15T16:36:55.134-07:00,,,,,,,,,,,,0.036366,-0.025154,0.000199,2025-10-15T16:36:55.128-07:00,-0.938048,0.048327,0.450063,-0.089158,-0.891280,0.025452,-0.063323,2025-10-15T16:36:55.134-07:00,-0.987673,0.060589,-0.088219,2025-10-15T16:36:55.128-07:00,0.061137,-0.026471,0.007286,2025-10-15T16:36:55.134-07:00
11.000000,0.011715,0.015866,0.005500,2025-10-15T16:36:56.128-07:00,-9.748491,0.625547,-0.861602,2025-10-15T16:36:56.128-07:00,-618.332323,57.208353,77.607034,2025-10-15T16:36:56.134-07:00,-47.774006,11.775740,5.176796,2025-10-15T16:36:56.128-07:00,,,,,,,,,,,,0.010566,0.013858,0.003918,2025-10-15T16:36:56.132-07:00,-0.915074,0.048059,0.439815,-0.088155,-0.896425,0.025424,-0.063832,2025-10-15T16:36:56.128-07:00,-0.986282,0.061387,-0.085950,2025-10-15T16:36:56.132-07:00,0.078121,-0.024243,0.019422,2025-10-15T16:36:56.128-07:00
12.000000,-0.036033,0.005133,-0.007707,2025-10-15T16:36:57.133-07:00,-9.754280,0.629279,-0.791809,2025-10-15T16:36:57.133-07:00,-618.340662,57.154771,78.165193,2025-10-15T16:36:57.130-07:00,-47.763750,11.713698,5.749004,2025-10-15T16:36:57.133-07:00,392.249405,-1.000000,-1.000000,33.304023,422.679108,-1.000000,16.107077,8.735557,-111.680061,-1.000000,2025-10-15T16:36:57.201-07:00,-0.037076,0.003161,-0.009449,2025-10-15T16:36:57.136-07:00,-0.915815,0.046656,0.440314,-0.080998,-0.896349,0.022118,-0.064213,2025-10-15T16:36:57.133-07:00,-0.986450,0.062001,-0.080346,2025-10-15T16:36:57.136-07:00,0.075850,-0.016178,0.005537,2025-10-15T16:36:57.133-07:00
13.000000,-0.011666,0.011726,-0.004422,2025-10-15T16:36:58.127-07:00,-9.761793,0.641789,-0.679973,2025-10-15T16:36:58.127-07:00,-618.317357,57.642013,78.357313,2025-10-15T16:36:58.136-07:00,-47.734705,12.207607,5.927911,2025-10-15T16:36:58.127-07:00,,,,,,,,,,,,-0.012614,0.010070,-0.006317,2025-10-15T16:36:58.131-07:00,-0.932940,0.044846,0.448202,-0.069545,-0.892649,0.016322,-0.065491,2025-10-15T16:36:58.127-07:00,-0.986443,0.063922,-0.067617,2025-10-15T16:36:58.131-07:00,0.089940,-0.013850,0.016384,2025-10-15T16:36:58.127-07:00
14.000000,0.000041,-0.001976,0.005346,2025-10-15T16:36:59.131-07:00,-9.762485,0.648783,-0.665422,2025-10-15T16:36:59.131-07:00,-618.004166,57.715419,78.469923,2025-10-15T16:36:59.132-07:00,-47.414401,12.282667,6.064756,2025-10-15T16:36:59.131-07:00,,,,,,,,,,,,-0.001096,-0.003788,0.003800,2025-10-15T16:36:59.135-07:00,-0.940873,0.044897,0.451760,-0.068056,-0.890876,0.015316,-0.066206,2025-10-15T16:36:59.131-07:00,-0.988049,0.063772,-0.065003,2025-10-15T16:36:59.135-07:00,0.074462,-0.025243,0.028421,2025-10-15T16:36:59.131-07:00
15.000000,0.053253,-0.019258,-0.004439,2025-10-15T16:37:00.135-07:00,-9.762937,0.647082,-0.658445,2025-10-15T16:37:00.135-07:00,-617.576065,57.661058,78.402890,2025-10-15T16:37:00.128-07:00,-46.968029,12.227118,6.013198,2025-10-15T16:37:00.135-07:00,,,,,,,,,,,,0.052288,-0.021453,-0.005816,2025-10-15T16:37:00.129-07:00,-0.936651,0.044616,0.449888,-0.067342,-0.891818,0.015143,-0.066032,2025-10-15T16:37:00.135-07:00,-0.987431,0.066210,-0.063365,2025-10-15T16:37:00.129-07:00,0.081532,0.001777,0.040302,2025-10-15T16:37:00.135-07:00
16.000000,0.080515,-0.052052,0.013760,2025-10-15T16:37:01.129-07:00,-9.708529,0.675603,-1.199053,2025-10-15T16:37:01.129-07:00,-618.954147,56.480050,76.871010,2025-10-15T16:37:01.134-07:00,-48.326605,11.067538,4.503251,2025-10-15T16:37:01.129-07:00,,,,,,,,,,,,0.079216,-0.053421,0.011792,2025-10-15T16:37:01.133-07:00,-0.820544,0.055928,0.395891,-0.122881,-0.915470,0.042570,-0.068948,2025-10-15T16:37:01.129-07:00,-0.980271,0.065067,-0.120363,2025-10-15T16:37:01.133-07:00,0.092682,-0.036970,0.021066,2025-10-15T16:37:01.129-07:00
17.000000,-0.011033,0.002590,0.009569,2025-10-15T16:37:02.133-07:00,-9.703783,0.607311,-1.278587,2025-10-15T16:37:02.133-07:00,-618.952022,56.049336,76.490060,2025-10-15T16:37:02.130-07:00,-48.333328,10.629198,4.111013,2025-10-15T16:37:02.133-07:00,,,,,,,,,,,,-0.011764,0.000204,0.007967,2025-10-15T16:37:02.127-07:00,-0.800598,0.053960,0.386798,-0.131007,-0.919306,0.048212,-0.061969,2025-10-15T16:37:02.133-07:00,-0.983550,0.058911,-0.127807,2025-10-15T16:37:02.127-07:00,0.063780,-0.029914,0.028909,2025-10-15T16:37:02.133-07:00
18.000000,0.009980,0.007195,0.004007,2025-10-15T16:37:03.130-07:00,-9.717826,0.544914,-1.198515,2025-10-15T16:37:03.130-07:00,-618.915573,55.795678,76.843234,2025-10-15T16:37:03.136-07:00,-48.308085,10.372147,4.456070,2025-10-15T16:37:03.130-07:00,392.249405,-1.000000,-1.000000,33.304023,422.679108,-1.000000,15.495549,8.748709,-111.680061,-1.000000,2025-10-15T16:37:03.257-07:00,0.008722,0.005366,0.002113,2025-10-15T16:37:03.131-07:00,-0.805317,0.049542,0.389408,-0.122712,-0.918603,0.045520,-0.055595,2025-10-15T16:37:03.130-07:00,-0.981730,0.052076,-0.120049,2025-10-15T16:37:03.131-07:00,0.091449,-0.034804,0.021383,2025-10-15T16:37:03.130-07:00
19.000000,-0.009426,0.002304,-0.001243,2025-10-15T16:37:04.134-07:00,-9.722199,0.525796,-1.171558,2025-10-15T16:37:04.134-07:00,-618.918379,55.749049,76.920209,2025-10-15T16:37:04.132-07:00,-48.304284,10.323023,4.540013,2025-10-15T16:37:04.134-07:00,,,,,,,,,,,,-0.010630,0.000205,-0.002949,2025-10-15T16:37:04.136-07:00,-0.806373,0.048127,0.390026,-0.119925,-0.918461,0.044598,-0.053642,2025-10-15T16:37:04.134-07:00,-0.983219,0.050081,-0.116556,2025-10-15T16:37:04.136-07:00,0.078267,-0.034262,0.027258,2025-10-15T16:37:04.134-07:00
20.000000,0.024330,-0.006105,0.000226,2025-10-15T16:37:05.129-07:00,-9.721598,0.535140,-1.172256,2025-10-15T16:37:05.129-07:00,-618.168135,55.856016,76.863814,2025-10-15T16:37:05.128-07:00,-47.548989,10.436911,4.483115,2025-10-15T16:37:05.129-07:00,,,,,,,,,,,,0.023400,-0.008084,-0.001551,2025-10-15T16:37:05.130-07:00,-0.813239,0.048731,0.393143,-0.120003,-0.917112,0.044281,-0.054596,2025-10-15T16:37:05.129-07:00,-0.982888,0.052308,-0.116635,2025-10-15T16:37:05.130-07:00,0.079942,-0.021129,0.028159,2025-10-15T16:37:05.129-07:00
21.000000,-0.000501,-0.004474,-0.000432,2025-10-15T16:37:06.133-07:00,-9.712264,0.512694,-1.256222,2025-10-15T16:37:06.133-07:00,-618.668905,55.676043,76.728170,2025-10-15T16:37:06.134-07:00,-48.045270,10.254227,4.356711,2025-10-15T16:37:06.133-07:00,,,,,,,,,,,,-0.001886,-0.006353,-0.002204,2025-10-15T16:37:06.134-07:00,-0.801336,0.049093,0.387541,-0.128630,-0.919223,0.048985,-0.052304,2025-10-15T16:37:06.133-07:00,-0.981831,0.048635,-0.123387,2025-10-15T16:37:06.134-07:00,0.085508,-0.035216,0.046977,2025-10-15T16:37:06.133-07:00
22.000000,0.009945,-0.003322,0.003843,2025-10-15T16:37:07.127-07:00,-9.713063,0.578211,-1.220865,2025-10-15T16:37:07.127-07:00,-618.954879,55.859343,76.875170,2025-10-15T16:37:07.130-07:00,-48.324081,10.444352,4.505887,2025-10-15T16:37:07.127-07:00,,,,,,,,,,,,0.008620,-0.005206,0.001971,2025-10-15T16:37:07.128-07:00,-0.787058,0.051134,0.380830,-0.125037,-0.922057,0.046391,-0.058995,2025-10-15T16:37:07.127-07:00,-0.983297,0.055350,-0.121625,2025-10-15T16:37:07.128-07:00,0.063992,-0.034019,0.031958,2025-10-15T16:37:07.127-07:00
23.000000,0.000135,0.008313,-0.003923,2025-10-15T16:37:08.131-07:00,-9.712059,0.567931,-1.234193,2025-10-15T16:37:08.131-07:00,-618.998490,55.815697,76.962366,2025-10-15T16:37:08.136-07:00,-48.347599,10.392809,4.578447,2025-10-15T16:37:08.131-07:00,,,,,,,,,,,,-0.000929,0.006408,-0.006200,2025-10-15T16:37:08.132-07:00,-0.787670,0.050923,0.381116,-0.126401,-0.921915,0.047205,-0.057945,2025-10-15T16:37:08.131-07:00,-0.981508,0.055300,-0.122014,2025-10-15T16:37:08.132-07:00,0.085966,-0.023426,0.039650,2025-10-15T16:37:08.131-07:00
24.000000,0.005946,-0.001744,0.000093,2025-10-15T16:37:09.135-07:00,-9.714030,0.573081,-1.216324,2025-10-15T16:37:09.135-07:00,-618.801775,55.894371,76.804822,2025-10-15T16:37:09.132-07:00,-48.168154,10.474146,4.428284,2025-10-15T16:37:09.135-07:00,392.249405,-1.000000,-1.000000,33.304023,422.679108,-1.000000,15.512470,8.764826,-111.680061,-1.000000,2025-10-15T16:37:09.499-07:00,0.004476,-0.003867,-0.001367,2025-10-15T16:37:09.127-07:00,-0.792756,0.050932,0.383488,-0.124565,-0.920984,0.046128,-0.058471,2025-10-15T16:37:09.135-07:00,-0.981764,0.054886,-0.118422,2025-10-15T16:37:09.127-07:00,0.084585,-0.032997,0.053484,2025-10-15T16:37:09.135-07:00
25.000000,0.054564,-0.014750,-0.010651,2025-10-15T16:37:10.130-07:00,-9.711562,0.599485,-1.221680,2025-10-15T16:37:10.130-07:00,-618.177606,55.911025,76.962365,2025-10-15T16:37:10.128-07:00,-47.535894,10.486141,4.590094,2025-10-15T16:37:10.130-07:00,,,,,,,,,,,,0.053597,-0.016883,-0.012242,2025-10-15T16:37:10.131-07:00,-0.787771,0.052161,0.381067,-0.125140,-0.921888,0.046022,-0.061169,2025-10-15T16:37:10.130-07:00,-0.982128,0.059247,-0.118700,2025-10-15T16:37:10.131-07:00,0.074637,-0.013179,0.057894,2025-10-15T16:37:10.130-07:00
26.000000,0.048042,-0.023426,0.026424,2025-10-15T16:37:11.134-07:00,-9.682661,0.568471,-1.443146,2025-10-15T16:37:11.134-07:00,-619.045652,54.709427,76.477395,2025-10-15T16:37:11.134-07:00,-48.485797,9.299037,4.133660,2025-10-15T16:37:11.134-07:00,,,,,,,,,,,,0.046538,-0.025407,0.024413,2025-10-15T16:37:11.135-07:00,-0.700829,0.052494,0.340180,-0.147953,-0.936948,0.059457,-0.058003,2025-10-15T16:37:11.134-07:00,-0.978308,0.054408,-0.145816,2025-10-15T16:37:11.135-07:00,0.083514,-0.033045,0.008647,2025-10-15T16:37:11.134-07:00
27.000000,0.017280,-0.000667,0.010191,2025-10-15T16:37:12.128-07:00,-9.677373,0.559365,-1.484404,2025-10-15T16:37:12.128-07:00,-618.969917,54.291170,76.482177,2025-10-15T16:37:12.130-07:00,-48.433094,8.869769,4.117469,2025-10-15T16:37:12.128-07:00,,,,,,,,,,,,0.016113,-0.002605,0.008434,2025-10-15T16:37:12.129-07:00,-0.663063,0.051637,0.322363,-0.152203,-0.943119,0.062594,-0.057071,2025-10-15T16:37:12.128-07:00,-0.980006,0.052877,-0.146309,2025-10-15T16:37:12.129-07:00,0.068054,-0.040562,0.060412,2025-10-15T16:37:12.128-07:00
28.000000,-0.002666,-0.003768,-0.005643,2025-10-15T16:37:13.132-07:00,-9.671641,0.515271,-1.537468,2025-10-15T16:37:13.132-07:00,-619.208166,54.292578,76.260147,2025-10-15T16:37:13.136-07:00,-48.670839,8.860635,3.901348,2025-10-15T16:37:13.132-07:00,,,,,,,,,,,,-0.004152,-0.005816,-0.008141,2025-10-15T16:37:13.133-07:00,-0.663082,0.050394,0.322420,-0.157648,-0.942951,0.065899,-0.052567,2025-10-15T16:37:13.132-07:00,-0.978998,0.047808,-0.150661,2025-10-15T16:37:13.133-07:00,0.068907,-0.044192,0.060747,2025-10-15T16:37:13.132-07:00
29.000000,0.002471,0.011096,0.015074,2025-10-15T16:37:14.136-07:00,-9.680090,0.505676,-1.485099,2025-10-15T16:37:14.136-07:00,-618.565869,54.414522,76.406518,2025-10-15T16:37:14.132-07:00,-48.022682,9.000182,4.043255,2025-10-15T16:37:14.136-07:00,,,,,,,,,,,,0.001817,0.009026,0.013936,2025-10-15T16:37:14.128-07:00,-0.674365,0.049409,0.327902,-0.152232,-0.941281,0.063238,-0.051588,2025-10-15T16:37:14.136-07:00,-0.981021,0.049852,-0.145714,2025-10-15T16:37:14.128-07:00,0.064177,-0.017768,0.057161,2025-10-15T16:37:14.136-07:00
30.000000,0.111167,0.029516,0.088956,2025-10-15T16:37:15.131-07:00,-9.729491,-0.124231,-1.193596,2025-10-15T16:37:15.131-07:00,-619.630079,51.022716,77.875371,2025-10-15T16:37:15.128-07:00,-49.275756,5.659416,5.459376,2025-10-15T16:37:15.131-07:00,392.247161,-1.000000,-1.000000,33.304023,422.676864,-1.000000,10.374864,52.565502,-111.680060,-1.000000,2025-10-15T16:37:15.474-07:00,0.109808,0.027504,0.086890,2025-10-15T16:37:15.132-07:00,-0.654675,0.013622,0.321154,-0.122067,-0.944797,0.059648,0.012671,2025-10-15T16:37:15.131-07:00,-0.980820,-0.014560,-0.114669,2025-10-15T16:37:15.132-07:00,0.100384,-0.009186,0.075947,2025-10-15T16:37:15.131-07:00
31.000000,-0.025874,-0.024634,-0.020784,2025-10-15T16:37:16.135-07:00,-9.716326,-0.269526,-1.296116,2025-10-15T16:37:16.135-07:00,-619.881510,49.210213,77.944639,2025-10-15T16:37:16.134-07:00,-49.731185,3.809362,5.554859,2025-10-15T16:37:16.135-07:00,,,,,,,,,,,,-0.027555,-0.026746,-0.022583,2025-10-15T16:37:16.136-07:00,-0.567928,0.005400,0.280382,-0.132612,-0.957481,0.067439,0.027488,2025-10-15T16:37:16.135-07:00,-0.981283,-0.033834,-0.135941,2025-10-15T16:37:16.136-07:00,0.090672,-0.062567,-0.048904,2025-10-15T16:37:16.135-07:00
32.000000,0.022533,-0.000194,-0.005705,2025-10-15T16:37:17.129-07:00,-9.693796,-0.193478,-1.469919,2025-10-15T16:37:17.129-07:00,-620.124221,49.665717,76.951543,2025-10-15T16:37:17.130-07:00,-49.842855,4.270788,4.568152,2025-10-15T16:37:17.129-07:00,392.245704,1.645176,-1.000000,33.304023,422.675407,-1.000000,13.068520,73.739906,-111.680060,0.000000,2025-10-15T16:37:17.474-07:00,0.021407,-0.002053,-0.007858,2025-10-15T16:37:17.130-07:00,-0.571791,0.011758,0.281913,-0.150489,-0.956428,0.074894,0.019731,2025-10-15T16:37:17.129-07:00,-0.977463,-0.022845,-0.139862,2025-10-15T16:37:17.130-07:00,0.113247,-0.031528,0.095703,2025-10-15T16:37:17.129-07:00
33.000000,0.014229,0.003624,-0.005208,2025-10-15T16:37:18.133-07:00,-9.701094,-0.094627,-1.430551,2025-10-15T16:37:18.133-07:00,-620.097118,49.945481,77.199722,2025-10-15T16:37:18.136-07:00,-49.764518,4.553164,4.816480,2025-10-15T16:37:18.133-07:00,377.875039,-1.000000,-1.000000,33.304026,408.304742,-1.000000,13.330192,78.295471,-111.680057,-1.000000,2025-10-15T16:37:18.474-07:00,0.013048,0.001568,-0.006898,2025-10-15T16:37:18.135-07:00,-0.556146,0.015452,0.274104,-0.146408,-0.958893,0.071653,0.009650,2025-10-15T16:37:18.133-07:00,-0.983166,-0.013843,-0.140028,2025-10-15T16:37:18.135-07:00,0.057649,-0.038785,0.057407,2025-10-15T16:37:18.133-07:00
34.000000,-0.021598,0.029419,-0.003451,2025-10-15T16:37:19.127-07:00,-9.713937,-0.048660,-1.339751,2025-10-15T16:37:19.127-07:00,-619.361347,50.207296,77.724001,2025-10-15T16:37:19.132-07:00,-49.067413,4.824745,5.321702,2025-10-15T16:37:19.127-07:00,376.462602,-1.000000,-1.000000,33.304029,406.892304,-1.000000,13.002316,193.541870,-111.680054,-1.000000,2025-10-15T16:37:19.474-07:00,-0.022866,0.027475,-0.005404,2025-10-15T16:37:19.129-07:00,-0.558504,0.016471,0.275139,-0.137055,-0.958931,0.066515,0.004962,2025-10-15T16:37:19.127-07:00,-0.979706,-0.008347,-0.131745,2025-10-15T16:37:19.129-07:00,0.113808,-0.035915,0.052667,2025-10-15T16:37:19.127-07:00
35.000000,-0.020971,0.013155,-0.013861,2025-10-15T16:37:20.132-07:00,-9.744640,0.045291,-1.098294,2025-10-15T16:37:20.132-07:00,-619.808625,50.720000,78.972271,2025-10-15T16:37:20.127-07:00,-49.640471,5.332636,6.578017,2025-10-15T16:37:20.132-07:00,,,,,,,,,,,,-0.020461,0.011084,-0.015462,2025-10-15T16:37:20.133-07:00,-0.571805,0.018029,0.281451,-0.112234,-0.957918,0.053162,-0.004618,2025-10-15T16:37:20.132-07:00,-0.985494,-0.001421,-0.112213,2025-10-15T16:37:20.133-07:00,0.087372,-0.058400,0.005630,2025-10-15T16:37:20.132-07:00
36.000000,-0.002384,-0.002622,-0.005210,2025-10-15T16:37:21.136-07:00,-9.758583,0.103235,-0.963892,2025-10-15T16:37:21.136-07:00,-619.785009,51.285103,79.377845,2025-10-15T16:37:21.134-07:00,-49.596849,5.897400,6.992231,2025-10-15T16:37:21.136-07:00,,,,,,,,,,,,-0.005741,-0.004725,-0.007471,2025-10-15T16:37:21.127-07:00,-0.593356,0.019413,0.291738,-0.098454,-0.955215,0.045521,-0.010527,2025-10-15T16:37:21.136-07:00,-0.986657,0.006676,-0.087034,2025-10-15T16:37:21.127-07:00,0.082652,-0.038427,0.108838,2025-10-15T16:37:21.136-07:00
37.000000,0.013245,-0.007613,-0.009031,2025-10-15T16:37:22.130-07:00,-9.752537,0.147647,-1.017757,2025-10-15T16:37:22.130-07:00,-619.469217,51.681947,79.042328,2025-10-15T16:37:22.130-07:00,-49.304839,6.289058,6.660134,2025-10-15T16:37:22.130-07:00,,,,,,,,,,,,0.012130,-0.009859,-0.011003,2025-10-15T16:37:22.131-07:00,-0.594910,0.022418,0.292309,-0.103982,-0.954880,0.047481,-0.015056,2025-10-15T16:37:22.130-07:00,-0.986829,0.010828,-0.097848,2025-10-15T16:37:22.131-07:00,0.069567,-0.038716,0.061864,2025-10-15T16:37:22.130-07:00
38.000000,0.317092,-0.046664,-0.029963,2025-10-15T16:37:23.134-07:00,-9.688007,0.752972,-1.295651,2025-10-15T16:37:23.134-07:00,-619.448783,52.643343,78.581775,2025-10-15T16:37:23.136-07:00,-49.248549,7.232247,6.238350,2025-10-15T16:37:23.134-07:00,376.305680,-1.000000,-1.000000,33.304028,406.735383,-1.000000,11.085080,176.762711,-111.680056,-1.000000,2025-10-15T16:37:23.474-07:00,0.315831,-0.048667,-0.031867,2025-10-15T16:37:23.136-07:00,-0.428624,0.051458,0.209252,-0.132961,-0.973515,0.057172,-0.076879,2025-10-15T16:37:23.134-07:00,-0.977067,0.068828,-0.122944,2025-10-15T16:37:23.136-07:00,0.101195,-0.081917,0.082815,2025-10-15T16:37:23.134-07:00
39.000000,0.037320,0.001814,-0.007465,2025-10-15T16:37:24.129-07:00,-9.672834,1.031832,-1.240394,2025-10-15T16:37:24.129-07:00,-619.374335,51.666073,79.268944,2025-10-15T16:37:24.132-07:00,-49.289282,6.248358,6.924631,2025-10-15T16:37:24.129-07:00,,,,,,,,,,,,0.035753,-0.000249,-0.009323,2025-10-15T16:37:24.130-07:00,-0.252649,0.060178,0.122223,-0.127540,-0.989045,0.056510,-0.105414,2025-10-15T16:37:24.129-07:00,-0.980121,0.097672,-0.125450,2025-10-15T16:37:24.130-07:00,0.052708,-0.069438,0.010034,2025-10-15T16:37:24.129-07:00
40.000000,0.005140,-0.003199,-0.011011,2025-10-15T16:37:25.133-07:00,-9.668385,1.121152,-1.196593,2025-10-15T16:37:25.133-07:00,-619.393349,51.994899,79.578883,2025-10-15T16:37:25.127-07:00,-49.292690,6.574448,7.249892,2025-10-15T16:37:25.133-07:00,,,,,,,,,,,,0.003869,-0.005451,-0.012762,2025-10-15T16:37:25.134-07:00,-0.242130,0.064150,0.116845,-0.123137,-0.989585,0.054077,-0.114578,2025-10-15T16:37:25.133-07:00,-0.979464,0.104805,-0.117618,2025-10-15T16:37:25.134-07:00,0.062682,-0.094925,0.038099,2025-10-15T16:37:25.133-07:00
41.000000,-0.012706,0.003089,0.002496,2025-10-15T16:37:26.127-07:00,-9.668185,1.101075,-1.217940,2025-10-15T16:37:26.127-07:00,-619.291990,52.321552,79.410497,2025-10-15T16:37:26.134-07:00,-49.188405,6.902443,7.081121,2025-10-15T16:37:26.127-07:00,,,,,,,,,,,,-0.013879,0.000793,0.000715,2025-10-15T16:37:26.128-07:00,-0.265879,0.063909,0.128588,-0.125314,-0.988127,0.054530,-0.112516,2025-10-15T16:37:26.127-07:00,-0.976638,0.103005,-0.119178,2025-10-15T16:37:26.128-07:00,0.086006,-0.089415,0.052127,2025-10-15T16:37:26.127-07:00
42.000000,0.002473,0.009706,-0.000463,2025-10-15T16:37:27.131-07:00,-9.672712,1.112635,-1.170227,2025-10-15T16:37:27.131-07:00,-619.427249,52.133708,79.719471,2025-10-15T16:37:27.129-07:00,-49.330116,6.718162,7.386807,2025-10-15T16:37:27.131-07:00,,,,,,,,,,,,0.001451,0.007396,-0.001504,2025-10-15T16:37:27.133-07:00,-0.262320,0.064087,0.126948,-0.120396,-0.988459,0.052130,-0.113702,2025-10-15T16:37:27.131-07:00,-0.978916,0.106602,-0.114978,2025-10-15T16:37:27.133-07:00,0.072458,-0.066810,0.042230,2025-10-15T16:37:27.131-07:00
43.000000,0.085077,-0.033214,-0.020292,2025-10-15T16:37:28.136-07:00,-9.661308,1.201355,-1.169177,2025-10-15T16:37:28.136-07:00,-618.697456,52.387933,79.900604,2025-10-15T16:37:28.135-07:00,-48.504823,6.978063,7.578925,2025-10-15T16:37:28.136-07:00,,,,,,,,,,,,0.082608,-0.034589,-0.022960,2025-10-15T16:37:28.127-07:00,-0.243257,0.068020,0.117185,-0.120443,-0.989264,0.052259,-0.122818,2025-10-15T16:37:28.136-07:00,-0.976586,0.115039,-0.114227,2025-10-15T16:37:28.127-07:00,0.080980,-0.065997,0.047445,2025-10-15T16:37:28.136-07:00
44.000000,0.048019,0.004874,-0.021646,2025-10-15T16:37:29.130-07:00,-9.587411,1.613588,-1.281745,2025-10-15T16:37:29.130-07:00,-619.070941,53.103082,79.408870,2025-10-15T16:37:29.131-07:00,-48.850727,7.682568,7.084432,2025-10-15T16:37:29.130-07:00,,,,,,,,,,,,0.046604,0.002858,-0.023591,2025-10-15T16:37:29.131-07:00,-0.149415,0.087090,0.068756,-0.132899,-0.991994,0.059857,-0.165295,2025-10-15T16:37:29.130-07:00,-0.971294,0.154453,-0.125847,2025-10-15T16:37:29.131-07:00,0.060468,-0.099637,0.048586,2025-10-15T16:37:29.130-07:00
45.000000,-0.023980,0.003406,-0.001871,2025-10-15T16:37:30.134-07:00,-9.579463,1.724843,-1.194791,2025-10-15T16:37:30.134-07:00,-618.944049,53.669291,79.862325,2025-10-15T16:37:30.127-07:00,-48.718281,8.254772,7.556869,2025-10-15T16:37:30.134-07:00,,,,,,,,,,,,-0.025419,0.001252,-0.003801,2025-10-15T16:37:30.135-07:00,-0.144382,0.092342,0.066248,-0.124083,-0.991978,0.055242,-0.176806,2025-10-15T16:37:30.134-07:00,-0.970037,0.168002,-0.121225,2025-10-15T16:37:30.135-07:00,0.060089,-0.077437,0.003440,2025-10-15T16:37:30.134-07:00
46.000000,0.000634,-0.011897,0.003106,2025-10-15T16:37:31.128-07:00,-9.576269,1.640869,-1.330434,2025-10-15T16:37:31.128-07:00,-618.898017,53.444710,79.269551,2025-10-15T16:37:31.133-07:00,-48.682695,8.031306,6.967975,2025-10-15T16:37:31.128-07:00,,,,,,,,,,,,-0.000661,-0.013920,0.001352,2025-10-15T16:37:31.130-07:00,-0.165184,0.089143,0.076242,-0.138045,-0.991179,0.061583,-0.168114,2025-10-15T16:37:31.128-07:00,-0.972185,0.156181,-0.129007,2025-10-15T16:37:31.130-07:00,0.035561,-0.104030,0.064883,2025-10-15T16:37:31.128-07:00
47.000000,0.138358,-0.033695,-0.022623,2025-10-15T16:37:32.133-07:00,-9.555304,1.737083,-1.352006,2025-10-15T16:37:32.133-07:00,-618.084383,53.018705,79.152188,2025-10-15T16:37:32.129-07:00,-47.842326,7.589151,6.872460,2025-10-15T16:37:32.133-07:00,,,,,,,,,,,,0.137560,-0.036562,-0.024366,2025-10-15T16:37:32.134-07:00,-0.110338,0.092363,0.048543,-0.140569,-0.992097,0.065084,-0.178091,2025-10-15T16:37:32.133-07:00,-0.968381,0.168363,-0.132608,2025-10-15T16:37:32.134-07:00,0.065966,-0.087550,0.047313,2025-10-15T16:37:32.133-07:00
48.000000,0.093662,-0.036032,-0.013317,2025-10-15T16:37:33.127-07:00,-9.432393,2.158479,-1.586674,2025-10-15T16:37:33.127-07:00,-618.451741,52.966692,77.314948,2025-10-15T16:37:33.135-07:00,-48.233011,7.527469,5.079623,2025-10-15T16:37:33.127-07:00,392.249405,-1.000000,-1.000000,33.304025,422.679108,-1.000000,15.677686,8.758089,-111.680059,-1.000000,2025-10-15T16:37:33.495-07:00,0.091861,-0.037630,-0.015652,2025-10-15T16:37:33.128-07:00,0.046732,0.108334,-0.032365,-0.166675,-0.989803,0.085331,-0.221935,2025-10-15T16:37:33.127-07:00,-0.952961,0.212924,-0.155205,2025-10-15T16:37:33.128-07:00,0.085953,-0.071417,0.059172,2025-10-15T16:37:33.127-07:00
49.000000,-0.001996,0.004340,-0.007296,2025-10-15T16:37:34.131-07:00,-9.385336,2.430826,-1.473989,2025-10-15T16:37:34.131-07:00,-618.275234,53.790115,77.905888,2025-10-15T16:37:34.131-07:00,-48.175955,8.346647,5.614496,2025-10-15T16:37:34.131-07:00,,,,,,,,,,,,-0.002366,0.001735,-0.007809,2025-10-15T16:37:34.132-07:00,0.097175,0.120646,-0.057746,-0.155776,-0.987510,0.083161,-0.250490,2025-10-15T16:37:34.131-07:00,-0.950918,0.234700,-0.152958,2025-10-15T16:37:34.132-07:00,0.058500,-0.118599,-0.024491,2025-10-15T16:37:34.131-07:00
50.000000,-0.004174,0.003240,-0.026084,2025-10-15T16:37:35.136-07:00,-9.353044,2.528405,-1.512738,2025-10-15T16:37:35.136-07:00,-618.017528,54.502618,77.885319,2025-10-15T16:37:35.127-07:00,-47.998340,9.063380,5.589177,2025-10-15T16:37:35.136-07:00,,,,,,,,,,,,-0.006809,0.001444,-0.028950,2025-10-15T16:37:35.127-07:00,0.078407,0.126392,-0.049142,-0.160350,-0.987145,0.084426,-0.260784,2025-10-15T16:37:35.136-07:00,-0.949501,0.248031,-0.149684,2025-10-15T16:37:35.127-07:00,0.034985,-0.090634,0.044787,2025-10-15T16:37:35.136-07:00
51.000000,0.016162,-0.001581,-0.004521,2025-10-15T16:37:36.130-07:00,-9.328778,2.632308,-1.488182,2025-10-15T16:37:36.130-07:00,-618.037677,54.989400,77.897842,2025-10-15T16:37:36.133-07:00,-48.050186,9.548436,5.610016,2025-10-15T16:37:36.130-07:00,,,,,,,,,,,,0.014909,-0.003763,-0.006525,2025-10-15T16:37:36.131-07:00,0.081697,0.131726,-0.051028,-0.158193,-0.986420,0.083736,-0.271754,2025-10-15T16:37:36.130-07:00,-0.945205,0.258506,-0.145520,2025-10-15T16:37:36.131-07:00,0.058537,-0.093356,0.060326,2025-10-15T16:37:36.130-07:00
52.000000,0.009579,0.001255,-0.012468,2025-10-15T16:37:37.134-07:00,-9.310922,2.725629,-1.430543,2025-10-15T16:37:37.134-07:00,-617.465430,55.338428,78.173075,2025-10-15T16:37:37.129-07:00,-47.494317,9.899931,5.885531,2025-10-15T16:37:37.134-07:00,,,,,,,,,,,,0.008072,-0.000960,-0.014446,2025-10-15T16:37:37.135-07:00,0.094046,0.136252,-0.057080,-0.152447,-0.985629,0.081892,-0.281647,2025-10-15T16:37:37.134-07:00,-0.943323,0.268278,-0.142975,2025-10-15T16:37:37.135-07:00,0.057121,-0.089217,0.028593,2025-10-15T16:37:37.134-07:00
53.000000,0.801998,-0.294865,-0.001673,2025-10-15T16:37:38.128-07:00,-8.977924,3.598267,-1.532673,2025-10-15T16:37:38.128-07:00,-617.298824,55.645639,75.107757,2025-10-15T16:37:38.135-07:00,-47.418666,10.222727,2.903952,2025-10-15T16:37:38.128-07:00,,,,,,,,,,,,0.801916,-0.297277,-0.003508,2025-10-15T16:37:38.130-07:00,0.424246,0.163044,-0.218608,-0.169038,-0.944241,0.122169,-0.376199,2025-10-15T16:37:38.128-07:00,-0.906822,0.360375,-0.153145,2025-10-15T16:37:38.130-07:00,0.081269,-0.063848,0.027935,2025-10-15T16:37:38.128-07:00
54.000000,0.662449,-0.015173,0.174156,2025-10-15T16:37:39.133-07:00,-9.238466,3.151567,-0.019533,2025-10-15T16:37:39.133-07:00,-616.155299,47.346194,73.007963,2025-10-15T16:37:39.131-07:00,-46.701044,1.997052,0.743919,2025-10-15T16:37:39.133-07:00,,,,,,,,,,,,0.661016,-0.017143,0.172203,2025-10-15T16:37:39.134-07:00,1.328036,0.131431,-0.606121,-0.003755,-0.771184,0.100579,-0.328080,2025-10-15T16:37:39.133-07:00,-0.938500,0.311754,-0.021965,2025-10-15T16:37:39.134-07:00,0.009834,-0.089706,-0.207282,2025-10-15T16:37:39.133-07:00
55.000000,0.147699,-0.058660,0.016973,2025-10-15T16:37:40.127-07:00,-9.520802,2.199363,0.815873,2025-10-15T16:37:40.127-07:00,-615.302556,42.918814,71.661022,2025-10-15T16:37:40.127-07:00,-45.940276,-2.500824,-0.550601,2025-10-15T16:37:40.127-07:00,,,,,,,,,,,,0.145388,-0.060768,0.015422,2025-10-15T16:37:40.128-07:00,1.768895,0.104239,-0.764691,0.085476,-0.632660,0.060235,-0.226207,2025-10-15T16:37:40.127-07:00,-0.969702,0.211538,0.060435,2025-10-15T16:37:40.128-07:00,0.008604,-0.123981,-0.229338,2025-10-15T16:37:40.127-07:00
56.000000,-0.022172,-0.010512,0.003076,2025-10-15T16:37:41.131-07:00,-9.541909,2.197786,0.534950,2025-10-15T16:37:41.131-07:00,-615.033085,43.059184,69.936250,2025-10-15T16:37:41.133-07:00,-45.596740,-2.358435,-2.294875,2025-10-15T16:37:41.131-07:00,,,,,,,,,,,,-0.025076,-0.011539,-0.000698,2025-10-15T16:37:41.132-07:00,1.794028,0.092083,-0.774181,0.056003,-0.622167,0.070744,-0.226037,2025-10-15T16:37:41.131-07:00,-0.964145,0.213431,0.033912,2025-10-15T16:37:41.132-07:00,0.088391,-0.103593,-0.198261,2025-10-15T16:37:41.131-07:00
57.000000,0.002658,0.006207,-0.016097,2025-10-15T16:37:42.133-07:00,-9.546315,2.173028,0.559364,2025-10-15T16:37:42.133-07:00,-615.060868,43.015505,70.032117,2025-10-15T16:37:42.129-07:00,-45.562447,-2.403018,-2.212866,2025-10-15T16:37:42.133-07:00,,,,,,,,,,,,0.000657,0.003299,-0.016816,2025-10-15T16:37:42.127-07:00,1.780324,0.092731,-0.769935,0.058529,-0.627624,0.068311,-0.223445,2025-10-15T16:37:42.133-07:00,-0.966908,0.212538,0.038671,2025-10-15T16:37:42.127-07:00,0.070222,-0.091839,-0.181098,2025-10-15T16:37:42.133-07:00
58.000000,0.057298,-0.009176,0.031923,2025-10-15T16:37:43.127-07:00,-9.537547,2.203273,0.589188,2025-10-15T16:37:43.127-07:00,-614.342429,43.105432,70.449505,2025-10-15T16:37:43.135-07:00,-44.822212,-2.302134,-1.773208,2025-10-15T16:37:43.127-07:00,,,,,,,,,,,,0.057633,-0.010861,0.030769,2025-10-15T16:37:43.131-07:00,1.768379,0.095346,-0.765846,0.061697,-0.632231,0.067963,-0.226610,2025-10-15T16:37:43.127-07:00,-0.968446,0.210087,0.049142,2025-10-15T16:37:43.131-07:00,0.047588,-0.137871,-0.098774,2025-10-15T16:37:43.127-07:00
59.000000,0.201100,-0.046643,0.092817,2025-10-15T16:37:44.131-07:00,-9.724939,0.888333,0.757118,2025-10-15T16:37:44.131-07:00,-614.256741,38.208937,68.927156,2025-10-15T16:37:44.131-07:00,-44.591609,-7.170668,-3.258261,2025-10-15T16:37:44.131-07:00,,,,,,,,,,,,0.199635,-0.048825,0.090011,2025-10-15T16:37:44.135-07:00,1.950933,0.057957,-0.824804,0.077695,-0.560732,0.015324,-0.090809,2025-10-15T16:37:44.131-07:00,-0.977274,0.092260,0.059579,2025-10-15T16:37:44.135-07:00,0.134952,0.024139,-0.178799,2025-10-15T16:37:44.131-07:00
60.000000,-0.040713,0.006445,-0.043115,2025-10-15T16:37:45.136-07:00,-9.732048,1.120330,0.357643,2025-10-15T16:37:45.136-07:00,-614.163939,39.741116,66.590087,2025-10-15T16:37:45.127-07:00,-44.468957,-5.670926,-5.597539,2025-10-15T16:37:45.136-07:00,392.249405,-1.000000,-1.000000,33.304023,422.679108,-1.000000,17.218343,8.783824,-111.680061,-1.000000,2025-10-15T16:37:45.493-07:00,-0.041821,0.003579,-0.044056,2025-10-15T16:37:45.129-07:00,1.997183,0.046496,-0.838433,0.036756,-0.541321,0.038056,-0.114532,2025-10-15T16:37:45.136-07:00,-0.987945,0.110220,0.013451,2025-10-15T16:37:45.129-07:00,0.043894,-0.038188,-0.219942,2025-10-15T16:37:45.136-07:00
61.000000,-0.002520,0.008726,-0.006602,2025-10-15T16:37:46.130-07:00,-9.699946,1.361533,0.472579,2025-10-15T16:37:46.130-07:00,-614.302475,40.311795,67.796037,2025-10-15T16:37:46.133-07:00,-44.658754,-5.094823,-4.421393,2025-10-15T16:37:46.130-07:00,,,,,,,,,,,,-0.004523,0.007883,-0.009215,2025-10-15T16:37:46.134-07:00,1.952173,0.059082,-0.825103,0.048679,-0.560138,0.044018,-0.139289,2025-10-15T16:37:46.130-07:00,-0.974927,0.131404,0.035818,2025-10-15T16:37:46.134-07:00,0.135694,-0.076110,-0.131369,2025-10-15T16:37:46.130-07:00
62.000000,0.007137,0.019366,0.032234,2025-10-15T16:37:47.134-07:00,-9.715651,1.177229,0.614126,2025-10-15T16:37:47.134-07:00,-614.346292,39.734438,68.122063,2025-10-15T16:37:47.129-07:00,-44.654355,-5.669645,-4.086723,2025-10-15T16:37:47.134-07:00,,,,,,,,,,,,0.006596,0.015750,0.030738,2025-10-15T16:37:47.128-07:00,1.963378,0.059574,-0.828454,0.063118,-0.555890,0.032471,-0.120340,2025-10-15T16:37:47.134-07:00,-0.984200,0.108422,0.044168,2025-10-15T16:37:47.128-07:00,0.069632,-0.115685,-0.178035,2025-10-15T16:37:47.134-07:00
63.000000,-0.015805,0.015494,-0.003802,2025-10-15T16:37:48.128-07:00,-9.716995,1.113705,0.712874,2025-10-15T16:37:48.128-07:00,-614.412926,39.452114,68.640537,2025-10-15T16:37:48.135-07:00,-44.722311,-5.956369,-3.583012,2025-10-15T16:37:48.128-07:00,,,,,,,,,,,,-0.016774,0.012762,-0.004954,2025-10-15T16:37:48.132-07:00,1.961473,0.061994,-0.827841,0.073233,-0.556864,0.026886,-0.113812,2025-10-15T16:37:48.128-07:00,-0.979940,0.107352,0.059411,2025-10-15T16:37:48.132-07:00,0.101028,-0.059138,-0.134662,2025-10-15T16:37:48.128-07:00
64.000000,0.075648,0.006699,-0.006717,2025-10-15T16:37:49.133-07:00,-9.707966,1.134601,0.793337,2025-10-15T16:37:49.133-07:00,-613.853658,39.577395,69.056000,2025-10-15T16:37:49.131-07:00,-44.130282,-5.832036,-3.156521,2025-10-15T16:37:49.133-07:00,,,,,,,,,,,,0.073439,0.005919,-0.010574,2025-10-15T16:37:49.127-07:00,1.967830,0.065971,-0.829205,0.081538,-0.554296,0.025707,-0.115958,2025-10-15T16:37:49.133-07:00,-0.981725,0.108189,0.065976,2025-10-15T16:37:49.127-07:00,0.082379,-0.070087,-0.148585,2025-10-15T16:37:49.133-07:00
65.000000,0.051443,-0.027241,-0.000426,2025-10-15T16:37:50.127-07:00,-9.712511,1.072434,0.824523,2025-10-15T16:37:50.127-07:00,-614.072213,39.678603,68.289404,2025-10-15T16:37:50.127-07:00,-44.378065,-5.720845,-3.892215,2025-10-15T16:37:50.127-07:00,,,,,,,,,,,,0.049707,-0.031018,-0.001263,2025-10-15T16:37:50.131-07:00,2.053486,0.064482,-0.852349,0.084690,-0.518339,0.024922,-0.109579,2025-10-15T16:37:50.127-07:00,-0.983637,0.096608,0.069251,2025-10-15T16:37:50.131-07:00,0.064463,-0.125836,-0.139266,2025-10-15T16:37:50.127-07:00
66.000000,-0.024781,0.012720,-0.000399,2025-10-15T16:37:51.131-07:00,-9.711105,1.153230,0.729753,2025-10-15T16:37:51.131-07:00,-614.102149,39.884290,67.963382,2025-10-15T16:37:51.133-07:00,-44.397188,-5.510211,-4.244702,2025-10-15T16:37:51.131-07:00,376.305664,-1.000000,-1.000000,33.304025,406.735367,-1.000000,13.153616,70.603760,-111.680060,-1.000000,2025-10-15T16:37:51.474-07:00,-0.027029,0.010960,-0.002425,2025-10-15T16:37:51.135-07:00,2.039578,0.062702,-0.848750,0.075006,-0.524143,0.030547,-0.117870,2025-10-15T16:37:51.131-07:00,-0.980620,0.109568,0.066419,2025-10-15T16:37:51.135-07:00,0.093588,-0.078379,-0.080104,2025-10-15T16:37:51.131-07:00
67.000000,-0.007039,-0.002502,-0.012668,2025-10-15T16:37:52.136-07:00,-9.700312,1.204842,0.786901,2025-10-15T16:37:52.136-07:00,-613.972955,40.212982,68.337145,2025-10-15T16:37:52.129-07:00,-44.326877,-5.198448,-3.864269,2025-10-15T16:37:52.136-07:00,376.305664,-1.000000,-1.000000,33.304024,406.735367,-1.000000,13.860625,68.641357,-111.680059,-1.000000,2025-10-15T16:37:52.474-07:00,-0.007701,-0.004271,-0.015265,2025-10-15T16:37:52.129-07:00,2.016656,0.066963,-0.842310,0.080942,-0.533927,0.030487,-0.123172,2025-10-15T16:37:52.136-07:00,-0.978927,0.111830,0.068495,2025-10-15T16:37:52.129-07:00,0.101396,-0.105517,-0.114919,2025-10-15T16:37:52.136-07:00
68.000000,0.029148,0.014480,0.019808,2025-10-15T16:37:53.130-07:00,-9.693049,1.229737,0.831641,2025-10-15T16:37:53.130-07:00,-613.436216,40.485674,68.425054,2025-10-15T16:37:53.135-07:00,-43.755504,-4.898345,-3.783585,2025-10-15T16:37:53.130-07:00,376.305664,-1.000000,-1.000000,33.304026,406.735367,-1.000000,14.567251,49.332653,-111.680062,-1.000000,2025-10-15T16:37:53.474-07:00,0.024934,0.014052,0.019420,2025-10-15T16:37:53.134-07:00,2.026378,0.069459,-0.844616,0.085583,-0.529875,0.030678,-0.125731,2025-10-15T16:37:53.130-07:00,-0.977697,0.117657,0.075442,2025-10-15T16:37:53.134-07:00,0.104224,-0.078248,-0.092804,2025-10-15T16:37:53.130-07:00
69.000000,0.082308,-0.037116,-0.006913,2025-10-15T16:37:54.134-07:00,-9.723588,1.077928,0.673698,2025-10-15T16:37:54.134-07:00,-613.859231,40.258216,66.803956,2025-10-15T16:37:54.131-07:00,-44.021942,-5.141502,-5.400391,2025-10-15T16:37:54.134-07:00,376.305664,-1.000000,-1.000000,33.304028,406.735367,-1.000000,11.996603,72.385635,-111.680063,-1.000000,2025-10-15T16:37:54.474-07:00,0.083322,-0.040701,-0.009607,2025-10-15T16:37:54.128-07:00,2.115452,0.057082,-0.868426,0.069174,-0.491450,0.030960,-0.110142,2025-10-15T16:37:54.134-07:00,-0.985417,0.102377,0.060674,2025-10-15T16:37:54.128-07:00,0.053140,-0.073359,-0.083351,2025-10-15T16:37:54.134-07:00
70.000000,-0.015881,0.005338,-0.010178,2025-10-15T16:37:55.128-07:00,-9.719333,1.131355,0.650007,2025-10-15T16:37:55.128-07:00,-613.949985,40.355386,66.870979,2025-10-15T16:37:55.127-07:00,-44.093142,-5.044661,-5.336566,2025-10-15T16:37:55.128-07:00,376.305664,1.992499,-1.000000,33.304029,406.735367,-1.000000,13.253618,68.937523,-111.680067,0.000000,2025-10-15T16:37:55.474-07:00,-0.017395,0.002547,-0.010907,2025-10-15T16:37:55.132-07:00,2.111867,0.057446,-0.867451,0.066779,-0.492987,0.033839,-0.115625,2025-10-15T16:37:55.128-07:00,-0.982396,0.103820,0.053254,2025-10-15T16:37:55.132-07:00,0.094842,-0.118596,-0.127592,2025-10-15T16:37:55.128-07:00
71.000000,-0.013562,0.003115,-0.014152,2025-10-15T16:37:56.133-07:00,-9.709024,1.188643,0.699517,2025-10-15T16:37:56.133-07:00,-613.869455,40.564284,67.118302,2025-10-15T16:37:56.133-07:00,-44.037412,-4.839105,-5.085546,2025-10-15T16:37:56.133-07:00,,,,,,,,,,,,-0.015344,0.001107,-0.017696,2025-10-15T16:37:56.137-07:00,2.090065,0.061494,-0.861686,0.071924,-0.502510,0.034470,-0.121508,2025-10-15T16:37:56.133-07:00,-0.977379,0.111248,0.062545,2025-10-15T16:37:56.137-07:00,0.120498,-0.093432,-0.088821,2025-10-15T16:37:56.133-07:00
72.000000,0.173158,-0.017078,-0.060152,2025-10-15T16:37:57.127-07:00,-9.666672,1.494142,0.635302,2025-10-15T16:37:57.127-07:00,-613.169510,42.400011,66.416561,2025-10-15T16:37:57.129-07:00,-43.374057,-3.047769,-5.789896,2025-10-15T16:37:57.127-07:00,376.305829,2.223699,-1.000000,33.304028,406.735532,-1.000000,12.902113,61.525379,-111.680069,0.000000,2025-10-15T16:37:57.475-07:00,0.172496,-0.016593,-0.061329,2025-10-15T16:37:57.131-07:00,2.137306,0.064988,-0.871809,0.065595,-0.481541,0.051269,-0.153021,2025-10-15T16:37:57.127-07:00,-0.997873,0.137290,0.063532,2025-10-15T16:37:57.131-07:00,-0.124916,-0.144807,-0.003969,2025-10-15T16:37:57.127-07:00
73.000000,0.401626,-0.125214,0.030470,2025-10-15T16:37:58.131-07:00,-9.412523,1.868041,1.696623,2025-10-15T16:37:58.131-07:00,-614.824617,45.780878,68.877962,2025-10-15T16:37:58.135-07:00,-45.512259,0.368070,-3.316404,2025-10-15T16:37:58.131-07:00,376.300544,2.202746,-1.000000,33.304030,406.730247,-1.000000,14.039362,62.049438,-111.680071,0.000000,2025-10-15T16:37:58.475-07:00,0.393136,-0.120768,0.034250,2025-10-15T16:37:58.135-07:00,2.382157,0.118597,-0.910058,0.179040,-0.372985,0.051641,-0.192222,2025-10-15T16:37:58.131-07:00,-0.928366,0.219378,0.154434,2025-10-15T16:37:58.135-07:00,0.306397,0.270222,-0.197851,2025-10-15T16:37:58.131-07:00
74.000000,0.391765,-0.077909,-0.005993,2025-10-15T16:37:59.136-07:00,-9.695797,0.495490,-0.946154,2025-10-15T16:37:59.136-07:00,-611.610325,48.262506,53.674351,2025-10-15T16:37:59.131-07:00,-43.657347,2.879874,-18.598695,2025-10-15T16:37:59.136-07:00,376.300593,2.211147,-1.000000,33.304032,406.730296,-1.000000,15.148339,68.232346,-111.680075,0.000000,2025-10-15T16:37:59.494-07:00,0.394995,-0.095862,-0.010618,2025-10-15T16:37:59.129-07:00,0.621983,-0.047333,-0.990433,-0.097174,-0.052882,0.025336,-0.050695,2025-10-15T16:37:59.136-07:00,-0.998491,0.069419,-0.112908,2025-10-15T16:37:59.129-07:00,-0.118652,0.186411,-0.181261,2025-10-15T16:37:59.136-07:00
75.000000,0.081540,-0.213313,0.379469,2025-10-15T16:38:00.130-07:00,-9.718976,-0.234708,-0.655780,2025-10-15T16:38:00.130-07:00,-612.051042,46.272861,55.469973,2025-10-15T16:38:00.127-07:00,-44.446507,0.967319,-16.742883,2025-10-15T16:38:00.130-07:00,376.300145,1.806211,-1.000000,33.304032,406.729848,-1.000000,16.000578,68.988716,-111.680076,0.000000,2025-10-15T16:38:00.475-07:00,0.084480,-0.205035,0.364553,2025-10-15T16:38:00.134-07:00,-0.023061,-0.033204,-0.997136,-0.067723,-0.013040,-0.012162,0.024039,2025-10-15T16:38:00.130-07:00,-1.002071,-0.022708,-0.081652,2025-10-15T16:38:00.134-07:00,-0.085268,0.019932,-0.128052,2025-10-15T16:38:00.130-07:00
76.000000,-0.458623,0.246697,-0.358489,2025-10-15T16:38:01.134-07:00,-9.494891,-1.466598,-1.168909,2025-10-15T16:38:01.134-07:00,-609.990678,38.307380,53.492557,2025-10-15T16:38:01.133-07:00,-42.087996,-7.113111,-18.854170,2025-10-15T16:38:01.134-07:00,376.300145,2.019405,-1.000000,33.304033,406.729848,-1.000000,16.180862,68.988716,-111.680077,0.000000,2025-10-15T16:38:01.493-07:00,-0.460835,0.234464,-0.346497,2025-10-15T16:38:01.128-07:00,1.818540,-0.065029,-0.985279,-0.124278,-0.097014,-0.073241,0.150744,2025-10-15T16:38:01.134-07:00,-0.907786,-0.127161,-0.135864,2025-10-15T16:38:01.128-07:00,0.608583,0.201377,-0.179955,2025-10-15T16:38:01.134-07:00
77.000000,-0.204486,0.077490,-0.094927,2025-10-15T16:38:02.128-07:00,-9.655326,1.580138,0.578769,2025-10-15T16:38:02.128-07:00,-613.922334,46.622850,62.825226,2025-10-15T16:38:02.129-07:00,-46.067195,1.201504,-9.404470,2025-10-15T16:38:02.128-07:00,,,,,,,,,,,,-0.203313,0.075533,-0.095388,2025-10-15T16:38:02.132-07:00,2.510014,0.053609,-0.945927,0.059883,-0.311623,0.067374,-0.161904,2025-10-15T16:38:02.128-07:00,-0.990545,0.150340,0.067241,2025-10-15T16:38:02.132-07:00,-0.061955,-0.113799,0.075485,2025-10-15T16:38:02.128-07:00
78.000000,0.034796,-0.021506,-0.006851,2025-10-15T16:38:03.133-07:00,-9.635222,1.674944,0.720475,2025-10-15T16:38:03.133-07:00,-613.920190,46.771434,64.097766,2025-10-15T16:38:03.135-07:00,-46.044371,1.396488,-8.068600,2025-10-15T16:38:03.133-07:00,,,,,,,,,,,,0.034595,-0.024553,-0.008312,2025-10-15T16:38:03.137-07:00,2.475910,0.063122,-0.939880,0.074632,-0.328294,0.068790,-0.171643,2025-10-15T16:38:03.133-07:00,-0.978074,0.159531,0.072657,2025-10-15T16:38:03.137-07:00,0.035398,-0.110497,-0.006074,2025-10-15T16:38:03.133-07:00
79.000000,-0.052740,0.061188,0.087720,2025-10-15T16:38:04.127-07:00,-9.681256,1.270345,0.866147,2025-10-15T16:38:04.127-07:00,-614.082313,44.957949,64.845653,2025-10-15T16:38:04.131-07:00,-46.126049,-0.376779,-7.349511,2025-10-15T16:38:04.127-07:00,,,,,,,,,,,,-0.054632,0.059653,0.085337,2025-10-15T16:38:04.131-07:00,2.459487,0.063479,-0.938374,0.089178,-0.336024,0.046184,-0.129940,2025-10-15T16:38:04.127-07:00,-0.977243,0.122957,0.082896,2025-10-15T16:38:04.131-07:00,0.111824,-0.062584,-0.054581,2025-10-15T16:38:04.127-07:00
80.000000,0.005740,-0.008359,-0.000171,2025-10-15T16:38:05.131-07:00,-9.713753,0.872616,1.024869,2025-10-15T16:38:05.131-07:00,-614.129601,42.932793,65.727573,2025-10-15T16:38:05.127-07:00,-46.156970,-2.446111,-6.435879,2025-10-15T16:38:05.131-07:00,,,,,,,,,,,,0.003811,-0.010771,-0.001954,2025-10-15T16:38:05.135-07:00,2.447090,0.064487,-0.937277,0.105119,-0.341706,0.023956,-0.089100,2025-10-15T16:38:05.131-07:00,-0.979802,0.079631,0.100821,2025-10-15T16:38:05.135-07:00,0.109120,-0.091620,-0.035992,2025-10-15T16:38:05.131-07:00
81.000000,0.032797,-0.033136,-0.023335,2025-10-15T16:38:06.136-07:00,-9.714994,0.964222,0.918123,2025-10-15T16:38:06.136-07:00,-613.265754,43.393196,65.262578,2025-10-15T16:38:06.133-07:00,-45.289886,-1.990296,-6.897574,2025-10-15T16:38:06.136-07:00,,,,,,,,,,,,0.030890,-0.034932,-0.025751,2025-10-15T16:38:06.129-07:00,2.464321,0.060664,-0.940212,0.094219,-0.333584,0.030718,-0.098484,2025-10-15T16:38:06.136-07:00,-0.980774,0.086152,0.087791,2025-10-15T16:38:06.129-07:00,0.097730,-0.118324,-0.057072,2025-10-15T16:38:06.136-07:00
82.000000,0.082577,-0.018854,0.015674,2025-10-15T16:38:07.130-07:00,-9.733925,0.905607,0.765908,2025-10-15T16:38:07.130-07:00,-614.073804,43.666880,64.471086,2025-10-15T16:38:07.129-07:00,-46.078350,-1.706551,-7.704165,2025-10-15T16:38:07.130-07:00,,,,,,,,,,,,0.080793,-0.020741,0.014576,2025-10-15T16:38:07.134-07:00,2.514889,0.051550,-0.948903,0.078522,-0.309373,0.031805,-0.092481,2025-10-15T16:38:07.130-07:00,-0.983199,0.085282,0.077639,2025-10-15T16:38:07.134-07:00,0.090972,-0.069628,-0.003740,2025-10-15T16:38:07.130-07:00
83.000000,0.071191,-0.011261,-0.014284,2025-10-15T16:38:08.134-07:00,-9.748396,0.941167,0.497725,2025-10-15T16:38:08.134-07:00,-613.913886,44.905119,62.688989,2025-10-15T16:38:08.135-07:00,-45.950341,-0.473646,-9.490035,2025-10-15T16:38:08.134-07:00,,,,,,,,,,,,0.070620,-0.014004,-0.016516,2025-10-15T16:38:08.128-07:00,2.593308,0.037519,-0.960853,0.051013,-0.271487,0.039331,-0.096122,2025-10-15T16:38:08.134-07:00,-0.983698,0.085286,0.047848,2025-10-15T16:38:08.128-07:00,0.106795,-0.109118,-0.027884,2025-10-15T16:38:08.134-07:00
84.000000,0.002939,0.000209,-0.002215,2025-10-15T16:38:09.129-07:00,-9.739052,1.000998,0.564365,2025-10-15T16:38:09.129-07:00,-613.831887,45.477113,62.767234,2025-10-15T16:38:09.131-07:00,-45.926536,0.121278,-9.417994,2025-10-15T16:38:09.129-07:00,,,,,,,,,,,,0.001212,-0.002434,-0.003884,2025-10-15T16:38:09.132-07:00,2.614740,0.041205,-0.963450,0.057884,-0.261368,0.041794,-0.102252,2025-10-15T16:38:09.129-07:00,-0.984021,0.092384,0.056415,2025-10-15T16:38:09.132-07:00,0.089872,-0.095631,-0.013076,2025-10-15T16:38:09.129-07:00
85.000000,-0.003957,0.001753,-0.000953,2025-10-15T16:38:10.133-07:00,-9.737608,1.005582,0.581031,2025-10-15T16:38:10.133-07:00,-613.291635,45.576608,62.738508,2025-10-15T16:38:10.127-07:00,-45.417223,0.221759,-9.444521,2025-10-15T16:38:10.133-07:00,376.299469,-1.000000,-1.000000,33.304035,406.729172,-1.000000,14.787193,50.955185,-111.680080,-1.000000,2025-10-15T16:38:10.475-07:00,-0.004846,-0.000376,-0.003023,2025-10-15T16:38:10.127-07:00,2.621805,0.041943,-0.964319,0.059598,-0.258002,0.041945,-0.102722,2025-10-15T16:38:10.133-07:00,-0.983723,0.091015,0.054724,2025-10-15T16:38:10.127-07:00,0.087981,-0.113021,-0.047566,2025-10-15T16:38:10.133-07:00
86.000000,0.269871,-0.056395,0.027503,2025-10-15T16:38:11.127-07:00,-9.743910,1.072000,0.148857,2025-10-15T16:38:11.127-07:00,-613.234584,47.168003,60.402579,2025-10-15T16:38:11.133-07:00,-45.276409,1.792322,-11.754789,2025-10-15T16:38:11.127-07:00,376.299469,2.185977,-1.000000,33.304035,406.729172,-1.000000,15.417664,68.089577,-111.680081,0.000000,2025-10-15T16:38:11.475-07:00,0.266865,-0.050994,0.024736,2025-10-15T16:38:11.131-07:00,2.734720,0.018506,-0.977336,0.015259,-0.201998,0.051865,-0.109544,2025-10-15T16:38:11.127-07:00,-0.982517,0.095614,0.017766,2025-10-15T16:38:11.131-07:00,0.126576,-0.112823,0.052407,2025-10-15T16:38:11.127-07:00
87.000000,-0.082878,0.036144,-0.024382,2025-10-15T16:38:12.131-07:00,-9.736765,0.878080,0.750795,2025-10-15T16:38:12.131-07:00,-614.266727,47.662173,62.914423,2025-10-15T16:38:12.129-07:00,-46.368141,2.303419,-9.258994,2025-10-15T16:38:12.131-07:00,376.299469,2.443997,-1.000000,33.304035,406.729172,-1.000000,16.232164,68.089577,-111.680082,0.000000,2025-10-15T16:38:12.493-07:00,-0.082370,0.026007,-0.025798,2025-10-15T16:38:12.135-07:00,2.832822,0.044987,-0.985895,0.076950,-0.155149,0.038360,-0.089669,2025-10-15T16:38:12.131-07:00,-0.986439,0.088674,0.068664,2025-10-15T16:38:12.135-07:00,0.047301,-0.030974,-0.103262,2025-10-15T16:38:12.131-07:00
88.000000,-0.051095,0.015222,0.000881,2025-10-15T16:38:13.136-07:00,-9.723708,1.056978,0.704199,2025-10-15T16:38:13.136-07:00,-614.120895,47.145791,62.938882,2025-10-15T16:38:13.135-07:00,-46.213791,1.788404,-9.237231,2025-10-15T16:38:13.136-07:00,,,,,,,,,,,,-0.053388,0.012769,-0.000730,2025-10-15T16:38:13.129-07:00,2.743364,0.046043,-0.977734,0.072297,-0.199290,0.045705,-0.107993,2025-10-15T16:38:13.136-07:00,-0.979601,0.090465,0.071499,2025-10-15T16:38:13.129-07:00,0.118192,-0.170726,-0.002551,2025-10-15T16:38:13.136-07:00
89.000000,0.023483,-0.006895,0.005414,2025-10-15T16:38:14.130-07:00,-9.747382,0.899328,0.589180,2025-10-15T16:38:14.130-07:00,-614.031878,46.900965,62.300235,2025-10-15T16:38:14.131-07:00,-46.128066,1.535928,-9.881538,2025-10-15T16:38:14.130-07:00,,,,,,,,,,,,0.022104,-0.008935,0.003565,2025-10-15T16:38:14.134-07:00,2.767524,0.038158,-0.980807,0.060371,-0.187023,0.039472,-0.091836,2025-10-15T16:38:14.130-07:00,-0.982998,0.079694,0.058092,2025-10-15T16:38:14.134-07:00,0.111647,-0.113177,-0.016259,2025-10-15T16:38:14.130-07:00
90.000000,0.004128,-0.009721,-0.000717,2025-10-15T16:38:15.134-07:00,-9.746612,0.926089,0.561293,2025-10-15T16:38:15.134-07:00,-613.984899,47.073311,61.982496,2025-10-15T16:38:15.127-07:00,-46.096430,1.705175,-10.208694,2025-10-15T16:38:15.134-07:00,,,,,,,,,,,,0.002229,-0.011860,-0.002640,2025-10-15T16:38:15.128-07:00,2.775862,0.036840,-0.981570,0.057525,-0.182906,0.041236,-0.094576,2025-10-15T16:38:15.134-07:00,-0.985120,0.083600,0.056649,2025-10-15T16:38:15.128-07:00,0.088892,-0.106499,-0.004378,2025-10-15T16:38:15.134-07:00
91.000000,0.004910,-0.004157,0.001129,2025-10-15T16:38:16.129-07:00,-9.752023,0.911847,0.486186,2025-10-15T16:38:16.129-07:00,-613.932359,46.983822,61.789391,2025-10-15T16:38:16.133-07:00,-46.026949,1.618185,-10.397631,2025-10-15T16:38:16.129-07:00,,,,,,,,,,,,0.003611,-0.006750,-0.000985,2025-10-15T16:38:16.132-07:00,2.779144,0.032855,-0.982043,0.049814,-0.181123,0.041281,-0.093117,2025-10-15T16:38:16.129-07:00,-0.984316,0.081741,0.050858,2025-10-15T16:38:16.132-07:00,0.094521,-0.109441,0.011506,2025-10-15T16:38:16.129-07:00
92.000000,0.105805,-0.027121,-0.044892,2025-10-15T16:38:17.133-07:00,-9.755732,0.910807,0.387625,2025-10-15T16:38:17.133-07:00,-613.338775,47.467651,61.536258,2025-10-15T16:38:17.129-07:00,-45.461106,2.068695,-10.641976,2025-10-15T16:38:17.133-07:00,,,,,,,,,,,,0.103355,-0.028401,-0.046984,2025-10-15T16:38:17.127-07:00,2.805153,0.027278,-0.984285,0.039710,-0.168089,0.042429,-0.093015,2025-10-15T16:38:17.133-07:00,-0.981844,0.084704,0.040634,2025-10-15T16:38:17.127-07:00,0.134769,-0.088464,0.012069,2025-10-15T16:38:17.133-07:00
93.000000,-0.072157,0.029330,0.033598,2025-10-15T16:38:18.127-07:00,-9.675529,1.524471,0.409008,2025-10-15T16:38:18.127-07:00,-613.788610,50.877682,61.527331,2025-10-15T16:38:18.136-07:00,-45.905742,5.551504,-10.649764,2025-10-15T16:38:18.127-07:00,,,,,,,,,,,,-0.073939,0.026711,0.033886,2025-10-15T16:38:18.131-07:00,2.857922,0.031741,-0.986252,0.042260,-0.142526,0.074245,-0.156134,2025-10-15T16:38:18.127-07:00,-0.992110,0.141575,0.041305,2025-10-15T16:38:18.131-07:00,-0.086179,-0.123815,-0.009354,2025-10-15T16:38:18.127-07:00
94.000000,0.178827,-0.033925,-0.037451,2025-10-15T16:38:19.131-07:00,-9.670875,1.578247,0.254175,2025-10-15T16:38:19.131-07:00,-613.197355,52.906060,60.468109,2025-10-15T16:38:19.132-07:00,-45.362783,7.522002,-11.716721,2025-10-15T16:38:19.131-07:00,,,,,,,,,,,,0.182146,-0.037227,-0.042288,2025-10-15T16:38:19.135-07:00,2.984730,0.019112,-0.992853,0.026279,-0.079103,0.079384,-0.161699,2025-10-15T16:38:19.131-07:00,-0.969054,0.155075,0.020014,2025-10-15T16:38:19.135-07:00,0.191320,-0.068424,-0.051680,2025-10-15T16:38:19.131-07:00
95.000000,-0.249063,0.060005,0.024153,2025-10-15T16:38:20.136-07:00,-9.737356,0.964820,0.594538,2025-10-15T16:38:20.136-07:00,-614.268487,47.822024,62.192131,2025-10-15T16:38:20.127-07:00,-46.465733,2.510504,-10.038143,2025-10-15T16:38:20.136-07:00,,,,,,,,,,,,-0.251032,0.057683,0.022908,2025-10-15T16:38:20.130-07:00,2.827200,0.037653,-0.985042,0.060973,-0.157633,0.043534,-0.098561,2025-10-15T16:38:20.136-07:00,-0.977691,0.091446,0.066610,2025-10-15T16:38:20.130-07:00,0.148123,-0.067564,0.055624,2025-10-15T16:38:20.136-07:00
96.000000,0.033315,-0.015977,0.004410,2025-10-15T16:38:21.130-07:00,-9.717518,1.175772,0.595356,2025-10-15T16:38:21.130-07:00,-614.229606,47.866773,62.482929,2025-10-15T16:38:21.134-07:00,-46.367673,2.552835,-9.734601,2025-10-15T16:38:21.130-07:00,,,,,,,,,,,,0.033397,-0.017769,0.001410,2025-10-15T16:38:21.134-07:00,2.759900,0.041373,-0.979250,0.061191,-0.191061,0.053139,-0.120186,2025-10-15T16:38:21.130-07:00,-0.979954,0.107156,0.062710,2025-10-15T16:38:21.134-07:00,0.109027,-0.126952,0.023031,2025-10-15T16:38:21.130-07:00
97.000000,0.036966,0.006267,0.036311,2025-10-15T16:38:22.134-07:00,-9.740480,0.959911,0.600056,2025-10-15T16:38:22.134-07:00,-614.277254,47.333990,62.587822,2025-10-15T16:38:22.130-07:00,-46.368506,2.034559,-9.638696,2025-10-15T16:38:22.134-07:00,,,,,,,,,,,,0.033610,0.003275,0.034985,2025-10-15T16:38:22.128-07:00,2.765346,0.039393,-0.980345,0.061523,-0.188155,0.042379,-0.098046,2025-10-15T16:38:22.134-07:00,-0.982887,0.088439,0.065875,2025-10-15T16:38:22.128-07:00,0.100978,-0.089216,0.049848,2025-10-15T16:38:22.134-07:00
98.000000,-0.041375,0.007855,-0.005717,2025-10-15T16:38:23.129-07:00,-9.747897,0.809442,0.700174,2025-10-15T16:38:23.129-07:00,-614.250501,46.917170,63.092801,2025-10-15T16:38:23.136-07:00,-46.279100,1.611142,-9.120585,2025-10-15T16:38:23.129-07:00,,,,,,,,,,,,-0.043343,0.006521,-0.008336,2025-10-15T16:38:23.132-07:00,2.790168,0.042482,-0.982855,0.071705,-0.176002,0.034377,-0.082635,2025-10-15T16:38:23.129-07:00,-0.984986,0.073460,0.079072,2025-10-15T16:38:23.132-07:00,0.097123,-0.089950,0.071746,2025-10-15T16:38:23.129-07:00
99.000000,0.009032,-0.008205,0.000294,2025-10-15T16:38:24.133-07:00,-9.745787,0.874467,0.651147,2025-10-15T16:38:24.133-07:00,-614.109398,46.973505,62.923566,2025-10-15T16:38:24.132-07:00,-46.101006,1.666706,-9.283845,2025-10-15T16:38:24.133-07:00,,,,,,,,,,,,0.008135,-0.010779,-0.001240,2025-10-15T16:38:24.127-07:00,2.787931,0.040645,-0.982612,0.066714,-0.177101,0.038047,-0.089290,2025-10-15T16:38:24.133-07:00,-0.983231,0.078666,0.069635,2025-10-15T16:38:24.127-07:00,0.105440,-0.102535,0.032617,2025-10-15T16:38:24.133-07:00
100.000000,0.012955,-0.004820,0.002618,2025-10-15T16:38:25.127-07:00,-9.753127,0.817456,0.614617,2025-10-15T16:38:25.127-07:00,-613.906424,46.875180,62.785191,2025-10-15T16:38:25.128-07:00,-45.856013,1.567636,-9.426285,2025-10-15T16:38:25.127-07:00,,,,,,,,,,,,0.011268,-0.007241,0.000273,2025-10-15T16:38:25.131-07:00,2.797746,0.038105,-0.983683,0.062934,-0.172137,0.035700,-0.083454,2025-10-15T16:38:25.127-07:00,-0.983646,0.073364,0.068186,2025-10-15T16:38:25.131-07:00,0.106887,-0.098235,0.054214,2025-10-15T16:38:25.127-07:00
101.000000,0.789386,-0.014456,0.106306,2025-10-15T16:38:26.132-07:00,-9.780602,0.385899,0.322956,2025-10-15T16:38:26.132-07:00,-614.070872,47.693045,61.673558,2025-10-15T16:38:26.134-07:00,-45.975101,2.357127,-10.528291,2025-10-15T16:38:26.132-07:00,,,,,,,,,,,,0.780342,-0.013530,0.107218,2025-10-15T16:38:26.135-07:00,1.311031,0.020138,-0.989313,0.033037,-0.067139,0.017751,-0.039388,2025-10-15T16:38:26.132-07:00,-0.999045,0.042177,0.060847,2025-10-15T16:38:26.135-07:00,-0.017005,0.031053,0.273595,2025-10-15T16:38:26.132-07:00
102.000000,0.566901,0.110361,-0.061242,2025-10-15T16:38:27.136-07:00,-9.600728,0.270799,1.469624,2025-10-15T16:38:27.136-07:00,-616.340660,57.305343,71.633012,2025-10-15T16:38:27.130-07:00,-48.107647,11.981094,-0.650854,2025-10-15T16:38:27.136-07:00,,,,,,,,,,,,0.573981,0.104214,-0.072414,2025-10-15T16:38:27.130-07:00,-2.406007,0.066278,-0.924707,0.151756,0.355650,0.036430,-0.027643,2025-10-15T16:38:27.136-07:00,-0.925401,0.052574,0.104597,2025-10-15T16:38:27.130-07:00,0.499048,0.267073,-0.434647,2025-10-15T16:38:27.136-07:00
103.000000,0.446074,-0.109932,0.047152,2025-10-15T16:38:28.130-07:00,-9.763229,-0.555283,0.349430,2025-10-15T16:38:28.130-07:00,-617.911101,54.973432,74.327422,2025-10-15T16:38:28.136-07:00,-49.875269,9.778167,2.088888,2025-10-15T16:38:28.130-07:00,,,,,,,,,,,,0.449608,-0.112795,0.052069,2025-10-15T16:38:28.134-07:00,-1.778033,0.033036,-0.772342,0.035757,0.627072,-0.011381,0.056693,2025-10-15T16:38:28.130-07:00,-1.010531,-0.060763,0.001133,2025-10-15T16:38:28.134-07:00,-0.112013,-0.051553,-0.337315,2025-10-15T16:38:28.130-07:00
104.000000,0.233025,-0.027797,0.001326,2025-10-15T16:38:29.135-07:00,-9.783262,-0.575755,-0.283880,2025-10-15T16:38:29.135-07:00,-618.716601,54.302300,75.551226,2025-10-15T16:38:29.132-07:00,-50.754934,9.101166,3.316164,2025-10-15T16:38:29.135-07:00,,,,,,,,,,,,0.230062,-0.031041,0.000900,2025-10-15T16:38:29.128-07:00,-1.407098,0.013138,-0.646340,-0.029001,0.761262,-0.030376,0.058750,2025-10-15T16:38:29.135-07:00,-0.986133,-0.059450,-0.051657,2025-10-15T16:38:29.128-07:00,0.117469,-0.005720,-0.219565,2025-10-15T16:38:29.135-07:00
105.000000,-0.067619,0.082472,-0.000968,2025-10-15T16:38:30.129-07:00,-9.786079,-0.538576,0.100333,2025-10-15T16:38:30.129-07:00,-618.585576,54.276491,77.931403,2025-10-15T16:38:30.128-07:00,-50.658403,9.068525,5.669439,2025-10-15T16:38:30.129-07:00,,,,,,,,,,,,-0.069813,0.081157,-0.003478,2025-10-15T16:38:30.133-07:00,-1.354007,0.024746,-0.625992,0.010251,0.779086,-0.013303,0.054948,2025-10-15T16:38:30.129-07:00,-0.986329,-0.058150,-0.019568,2025-10-15T16:38:30.133-07:00,0.108694,-0.033323,-0.298484,2025-10-15T16:38:30.129-07:00
106.000000,-0.021335,-0.008414,-0.011363,2025-10-15T16:38:31.133-07:00,-9.789768,-0.418960,0.389162,2025-10-15T16:38:31.133-07:00,-618.333088,55.107296,78.726935,2025-10-15T16:38:31.134-07:00,-50.394730,9.892924,6.499202,2025-10-15T16:38:31.133-07:00,392.249405,-1.000000,-1.000000,33.304030,422.679108,-1.000000,17.176666,8.805185,-111.680069,-1.000000,2025-10-15T16:38:31.492-07:00,-0.022694,-0.011159,-0.013275,2025-10-15T16:38:31.127-07:00,-1.404613,0.029144,-0.645370,0.039731,0.763289,0.001366,0.042735,2025-10-15T16:38:31.133-07:00,-0.987306,-0.046981,0.018143,2025-10-15T16:38:31.127-07:00,0.115449,-0.043112,-0.209142,2025-10-15T16:38:31.133-07:00
107.000000,-0.012228,0.006141,-0.009679,2025-10-15T16:38:32.127-07:00,-9.793347,-0.293945,0.416022,2025-10-15T16:38:32.127-07:00,-618.074829,55.853037,78.731995,2025-10-15T16:38:32.130-07:00,-50.117993,10.634986,6.494037,2025-10-15T16:38:32.127-07:00,,,,,,,,,,,,-0.013906,0.004139,-0.011801,2025-10-15T16:38:32.131-07:00,-1.426600,0.025223,-0.653869,0.042454,0.756155,0.006245,0.029979,2025-10-15T16:38:32.127-07:00,-0.988582,-0.035072,0.020347,2025-10-15T16:38:32.131-07:00,0.098608,-0.051419,-0.216117,2025-10-15T16:38:32.127-07:00
108.000000,-0.002050,0.010611,-0.009298,2025-10-15T16:38:33.132-07:00,-9.794012,-0.233881,0.438656,2025-10-15T16:38:33.132-07:00,-617.272600,56.327413,78.739441,2025-10-15T16:38:33.136-07:00,-49.322059,11.119493,6.504884,2025-10-15T16:38:33.132-07:00,376.299225,2.782719,-1.000000,33.304033,406.728928,-1.000000,14.522057,194.286484,-111.680078,0.000000,2025-10-15T16:38:33.474-07:00,-0.003524,0.007226,-0.010671,2025-10-15T16:38:33.135-07:00,-1.440914,0.023722,-0.659314,0.044758,0.751437,0.008950,0.023852,2025-10-15T16:38:33.132-07:00,-0.988524,-0.025875,0.028450,2025-10-15T16:38:33.135-07:00,0.098744,-0.019937,-0.159462,2025-10-15T16:38:33.132-07:00
109.000000,0.437127,-0.107949,0.002563,2025-10-15T16:38:34.136-07:00,-9.788408,-0.268357,0.277397,2025-10-15T16:38:34.136-07:00,-617.925538,55.191864,80.002058,2025-10-15T16:38:34.132-07:00,-49.968896,9.979709,7.737928,2025-10-15T16:38:34.136-07:00,,,,,,,,,,,,0.433414,-0.109005,-0.000382,2025-10-15T16:38:34.130-07:00,-1.261506,0.020533,-0.588474,0.028313,0.805881,0.003110,0.027376,2025-10-15T16:38:34.136-07:00,-0.984078,-0.024431,0.014838,2025-10-15T16:38:34.130-07:00,0.141854,0.029666,-0.115260,2025-10-15T16:38:34.136-07:00
110.000000,0.025224,0.007124,-0.028828,2025-10-15T16:38:35.130-07:00,-9.773813,-0.088563,-0.786683,2025-10-15T16:38:35.130-07:00,-619.007602,53.774369,77.645919,2025-10-15T16:38:35.128-07:00,-50.989099,8.537515,5.362872,2025-10-15T16:38:35.130-07:00,376.298802,2.250370,-1.000000,33.304033,406.728505,-1.000000,14.713423,262.588684,-111.680078,0.000000,2025-10-15T16:38:35.474-07:00,0.022102,0.004951,-0.030596,2025-10-15T16:38:35.134-07:00,-0.972614,-0.014756,-0.467141,-0.080316,0.883227,-0.037600,0.009031,2025-10-15T16:38:35.130-07:00,-0.988808,-0.014533,-0.101366,2025-10-15T16:38:35.134-07:00,0.079589,-0.057158,-0.208769,2025-10-15T16:38:35.130-07:00
111.000000,-0.025534,0.041964,-0.009674,2025-10-15T16:38:36.135-07:00,-9.799122,0.099284,-0.353883,2025-10-15T16:38:36.135-07:00,-618.884301,54.828861,79.759526,2025-10-15T16:38:36.134-07:00,-50.774417,9.597368,7.473602,2025-10-15T16:38:36.135-07:00,376.298802,2.515990,-1.000000,33.304033,406.728505,-1.000000,15.638242,262.588684,-111.680078,0.000000,2025-10-15T16:38:36.474-07:00,-0.026869,0.039896,-0.011573,2025-10-15T16:38:36.128-07:00,-0.988941,-0.012994,-0.474393,-0.036098,0.880081,-0.013493,-0.010124,2025-10-15T16:38:36.135-07:00,-0.988726,0.008189,-0.055544,2025-10-15T16:38:36.128-07:00,0.105030,-0.018612,-0.192371,2025-10-15T16:38:36.135-07:00
112.000000,-0.008052,0.002006,-0.001490,2025-10-15T16:38:37.129-07:00,-9.804463,0.127178,-0.161368,2025-10-15T16:38:37.129-07:00,-618.603702,55.389529,80.355060,2025-10-15T16:38:37.130-07:00,-50.417872,10.161896,8.086661,2025-10-15T16:38:37.129-07:00,376.299100,-1.000000,-1.000000,33.304036,406.728803,-1.000000,16.118945,126.276672,-111.680084,-1.000000,2025-10-15T16:38:37.474-07:00,-0.009190,-0.000606,-0.003959,2025-10-15T16:38:37.133-07:00,-1.014460,-0.009664,-0.485683,-0.016457,0.874069,-0.004044,-0.012969,2025-10-15T16:38:37.129-07:00,-0.988537,0.011261,-0.031766,2025-10-15T16:38:37.133-07:00,0.104489,-0.014049,-0.153450,2025-10-15T16:38:37.129-07:00
113.000000,-0.009650,0.008024,-0.007388,2025-10-15T16:38:38.133-07:00,-9.803616,0.202824,-0.132141,2025-10-15T16:38:38.133-07:00,-618.355759,56.045202,80.184093,2025-10-15T16:38:38.136-07:00,-50.219880,10.805316,7.914942,2025-10-15T16:38:38.133-07:00,376.299102,1.786184,-1.000000,33.304040,406.728805,-1.000000,16.501790,53.358662,-111.680088,0.000000,2025-10-15T16:38:38.474-07:00,-0.011527,0.005752,-0.008661,2025-10-15T16:38:38.127-07:00,-1.019940,-0.012314,-0.488053,-0.013478,0.872725,-0.000832,-0.020684,2025-10-15T16:38:38.133-07:00,-0.989487,0.018984,-0.025872,2025-10-15T16:38:38.127-07:00,0.100527,-0.017426,-0.121829,2025-10-15T16:38:38.133-07:00
114.000000,0.064854,-0.031703,-0.009392,2025-10-15T16:38:39.127-07:00,-9.799743,0.257409,-0.239205,2025-10-15T16:38:39.127-07:00,-618.206915,56.011755,80.045467,2025-10-15T16:38:39.132-07:00,-50.008755,10.793340,7.781160,2025-10-15T16:38:39.127-07:00,376.298802,1.997014,-1.000000,33.304033,406.728505,-1.000000,16.926916,53.358662,-111.680079,0.000000,2025-10-15T16:38:39.474-07:00,0.063946,-0.034199,-0.011413,2025-10-15T16:38:39.131-07:00,-1.002814,-0.017346,-0.480408,-0.024405,0.876791,-0.004426,-0.026252,2025-10-15T16:38:39.127-07:00,-0.988335,0.025611,-0.034945,2025-10-15T16:38:39.131-07:00,0.106602,-0.005826,-0.098576,2025-10-15T16:38:39.127-07:00
115.000000,0.009065,-0.010199,-0.019390,2025-10-15T16:38:40.132-07:00,-9.784748,0.470639,-0.444101,2025-10-15T16:38:40.132-07:00,-618.752928,56.488320,79.680151,2025-10-15T16:38:40.128-07:00,-50.621151,11.253600,7.410924,2025-10-15T16:38:40.132-07:00,376.298141,4.273384,-1.000000,33.304045,406.727844,-1.000000,17.211347,55.141136,-111.680090,0.000000,2025-10-15T16:38:40.474-07:00,0.007494,-0.013089,-0.022035,2025-10-15T16:38:40.136-07:00,-0.947763,-0.031692,-0.455605,-0.045355,0.889550,-0.009224,-0.048012,2025-10-15T16:38:40.132-07:00,-0.986903,0.044328,-0.059336,2025-10-15T16:38:40.136-07:00,0.107065,-0.038422,-0.137461,2025-10-15T16:38:40.132-07:00
116.000000,-0.002788,0.007549,0.003406,2025-10-15T16:38:41.136-07:00,-9.781702,0.516775,-0.470002,2025-10-15T16:38:41.136-07:00,-618.809529,56.684673,79.654075,2025-10-15T16:38:41.135-07:00,-50.561048,11.456555,7.388875,2025-10-15T16:38:41.136-07:00,388.626752,-1.000000,-1.000000,33.304050,419.056454,-1.000000,17.142729,3.000000,-111.680095,-1.000000,2025-10-15T16:38:41.474-07:00,-0.004800,0.005667,0.001859,2025-10-15T16:38:41.130-07:00,-0.951789,-0.034414,-0.457279,-0.048012,0.888606,-0.009259,-0.052721,2025-10-15T16:38:41.136-07:00,-0.986802,0.050542,-0.058239,2025-10-15T16:38:41.130-07:00,0.102640,-0.020233,-0.100087,2025-10-15T16:38:41.136-07:00
117.000000,-0.010675,0.000235,-0.007108,2025-10-15T16:38:42.130-07:00,-9.781506,0.551609,-0.432803,2025-10-15T16:38:42.130-07:00,-618.374401,57.068575,79.790314,2025-10-15T16:38:42.131-07:00,-50.107057,11.839049,7.529086,2025-10-15T16:38:42.130-07:00,376.236973,-1.000000,-1.000000,33.304051,406.666676,338.368342,15.780212,3.000000,-111.680112,1.047882,2025-10-15T16:38:42.474-07:00,-0.012370,-0.001719,-0.009363,2025-10-15T16:38:42.134-07:00,-0.959158,-0.035151,-0.460558,-0.044218,0.886906,-0.006626,-0.056278,2025-10-15T16:38:42.130-07:00,-0.987250,0.053711,-0.052748,2025-10-15T16:38:42.134-07:00,0.101868,-0.025370,-0.086406,2025-10-15T16:38:42.130-07:00
118.000000,-0.253917,0.058647,0.004916,2025-10-15T16:38:43.135-07:00,-9.784699,0.543223,0.084059,2025-10-15T16:38:43.135-07:00,-617.355593,58.665228,80.377511,2025-10-15T16:38:43.127-07:00,-49.205007,13.406988,8.073593,2025-10-15T16:38:43.135-07:00,376.187923,-1.000000,-1.000000,33.304054,406.617626,345.997562,15.780216,3.000000,-111.680131,1.444824,2025-10-15T16:38:43.474-07:00,-0.253030,0.055930,0.003261,2025-10-15T16:38:43.128-07:00,-1.178899,-0.019992,-0.554863,0.008591,0.829439,0.018490,-0.055423,2025-10-15T16:38:43.135-07:00,-0.986413,0.054741,-0.001553,2025-10-15T16:38:43.128-07:00,0.110857,-0.005623,-0.093384,2025-10-15T16:38:43.135-07:00
119.000000,0.004221,-0.033414,0.028785,2025-10-15T16:38:44.129-07:00,-9.796134,0.307978,-0.284185,2025-10-15T16:38:44.129-07:00,-618.130527,57.651712,78.514166,2025-10-15T16:38:44.133-07:00,-49.999735,12.415831,6.205721,2025-10-15T16:38:44.129-07:00,376.186633,-1.000000,-1.000000,33.304032,406.616336,-1.000000,12.303527,4.353575,-111.680102,0.699596,2025-10-15T16:38:45.000-07:00,0.003928,-0.036267,0.026943,2025-10-15T16:38:44.133-07:00,-1.214969,-0.021131,-0.570483,-0.028996,0.820957,-0.002937,-0.031413,2025-10-15T16:38:44.129-07:00,-0.985577,0.030696,-0.038228,2025-10-15T16:38:44.133-07:00,0.131278,-0.005363,-0.092947,2025-10-15T16:38:44.129-07:00
120.000000,0.032791,-0.003121,-0.004764,2025-10-15T16:38:45.133-07:00,-9.792763,0.295835,-0.426692,2025-10-15T16:38:45.133-07:00,-618.395103,57.479992,77.997867,2025-10-15T16:38:45.129-07:00,-50.269225,12.225187,5.677152,2025-10-15T16:38:45.133-07:00,376.153037,-1.000000,-1.000000,33.304023,406.582740,141.365881,12.303531,4.199702,-111.680096,2.662233,2025-10-15T16:38:46.000-07:00,0.030231,-0.005404,-0.006874,2025-10-15T16:38:45.127-07:00,-1.204289,-0.024763,-0.565929,-0.043545,0.824000,-0.009404,-0.030171,2025-10-15T16:38:45.133-07:00,-0.989061,0.026440,-0.044008,2025-10-15T16:38:45.127-07:00,0.090547,-0.036156,-0.000576,2025-10-15T16:38:45.133-07:00
121.000000,-0.011580,0.010989,-0.006011,2025-10-15T16:38:46.128-07:00,-9.792892,0.371362,-0.361134,2025-10-15T16:38:46.128-07:00,-618.368463,57.724966,78.535866,2025-10-15T16:38:46.135-07:00,-50.243687,12.473835,6.213358,2025-10-15T16:38:46.128-07:00,376.139572,-1.000000,-1.000000,33.304018,406.569275,141.345861,12.229646,3.295409,-111.680093,2.663366,2025-10-15T16:38:47.000-07:00,-0.013271,0.008727,-0.007759,2025-10-15T16:38:46.131-07:00,-1.181660,-0.025986,-0.556565,-0.036860,0.830380,-0.004755,-0.037877,2025-10-15T16:38:46.128-07:00,-0.988885,0.035045,-0.042393,2025-10-15T16:38:46.131-07:00,0.098605,-0.028309,-0.058392,2025-10-15T16:38:46.128-07:00
122.000000,-0.012938,0.001719,0.000811,2025-10-15T16:38:47.132-07:00,-9.794365,0.392821,-0.293531,2025-10-15T16:38:47.132-07:00,-618.143309,57.910558,78.641190,2025-10-15T16:38:47.131-07:00,-50.021886,12.663130,6.317831,2025-10-15T16:38:47.132-07:00,376.143165,-1.000000,-1.000000,33.303985,406.572867,149.274900,11.456277,3.495775,-111.680088,6.778945,2025-10-15T16:38:48.000-07:00,-0.014505,-0.000592,-0.001296,2025-10-15T16:38:47.136-07:00,-1.194874,-0.024985,-0.562099,-0.029960,0.826688,-0.001116,-0.040067,2025-10-15T16:38:47.132-07:00,-0.988108,0.036087,-0.032875,2025-10-15T16:38:47.136-07:00,0.102423,-0.037496,-0.028635,2025-10-15T16:38:47.132-07:00
123.000000,0.114952,-0.011978,0.008214,2025-10-15T16:38:48.136-07:00,-9.794614,0.383247,-0.280149,2025-10-15T16:38:48.136-07:00,-617.484452,57.757007,78.990376,2025-10-15T16:38:48.127-07:00,-49.362964,12.515197,6.693288,2025-10-15T16:38:48.136-07:00,376.031964,-1.000000,-1.000000,33.303956,406.461667,157.875249,11.069079,4.218548,-111.680085,6.894276,2025-10-15T16:38:49.000-07:00,0.114500,-0.014834,0.006489,2025-10-15T16:38:48.130-07:00,-1.174911,-0.024188,-0.553784,-0.028595,0.832168,-0.001069,-0.039091,2025-10-15T16:38:48.136-07:00,-0.994642,0.038994,-0.032554,2025-10-15T16:38:48.130-07:00,0.043073,-0.000454,-0.041490,2025-10-15T16:38:48.136-07:00
124.000000,0.209285,-0.062256,0.018302,2025-10-15T16:38:49.131-07:00,-9.782293,0.172311,-0.629477,2025-10-15T16:38:49.131-07:00,-618.568293,54.992233,79.006511,2025-10-15T16:38:49.133-07:00,-50.916615,9.748116,6.742711,2025-10-15T16:38:49.131-07:00,376.055000,-1.000000,-1.000000,33.303931,406.484703,157.869371,11.405108,3.966264,-111.680081,6.895647,2025-10-15T16:38:50.000-07:00,0.207573,-0.063514,0.016014,2025-10-15T16:38:49.134-07:00,-0.951388,-0.022277,-0.457195,-0.064261,0.888146,-0.024716,-0.017573,2025-10-15T16:38:49.131-07:00,-0.979304,0.010480,-0.069363,2025-10-15T16:38:49.134-07:00,0.174557,-0.067130,-0.044770,2025-10-15T16:38:49.131-07:00
125.000000,-0.016941,0.009614,0.001229,2025-10-15T16:38:50.135-07:00,-9.762182,0.232198,-0.901597,2025-10-15T16:38:50.135-07:00,-618.500308,54.785366,78.174642,2025-10-15T16:38:50.129-07:00,-50.905822,9.512284,5.907470,2025-10-15T16:38:50.135-07:00,376.077484,-1.000000,-1.000000,33.303904,406.507186,157.862936,12.539041,3.719312,-111.680076,6.897001,2025-10-15T16:38:51.000-07:00,-0.017613,0.005917,-0.000457,2025-10-15T16:38:50.129-07:00,-0.884608,-0.030383,-0.427043,-0.092095,0.902970,-0.036535,-0.023680,2025-10-15T16:38:50.135-07:00,-0.984938,0.019545,-0.094112,2025-10-15T16:38:50.129-07:00,0.096085,-0.041510,-0.019049,2025-10-15T16:38:50.135-07:00
126.000000,-0.012197,0.001300,0.002773,2025-10-15T16:38:51.132-07:00,-9.765727,0.223231,-0.866497,2025-10-15T16:38:51.132-07:00,-618.518872,54.699742,78.494236,2025-10-15T16:38:51.136-07:00,-50.910176,9.427529,6.231887,2025-10-15T16:38:51.132-07:00,376.061119,-1.000000,-1.000000,33.303900,406.490821,157.862951,13.894840,3.749976,-111.680074,6.897001,2025-10-15T16:38:52.000-07:00,-0.013774,-0.001524,0.000737,2025-10-15T16:38:51.133-07:00,-0.901164,-0.029498,-0.434581,-0.088497,0.899471,-0.034865,-0.022765,2025-10-15T16:38:51.132-07:00,-0.986433,0.017973,-0.090754,2025-10-15T16:38:51.133-07:00,0.090835,-0.046317,-0.024242,2025-10-15T16:38:51.132-07:00
127.000000,0.012182,0.001194,0.000200,2025-10-15T16:38:52.136-07:00,-9.769340,0.236804,-0.820623,2025-10-15T16:38:52.136-07:00,-617.879613,54.737780,78.819954,2025-10-15T16:38:52.132-07:00,-50.266376,9.465976,6.556085,2025-10-15T16:38:52.136-07:00,376.134949,-1.000000,-1.000000,33.303875,406.564651,157.737374,14.221807,3.410315,-111.680068,6.910991,2025-10-15T16:38:53.000-07:00,0.010656,-0.000927,-0.001675,2025-10-15T16:38:52.127-07:00,-0.904693,-0.029157,-0.436206,-0.083803,0.898788,-0.032400,-0.024150,2025-10-15T16:38:52.136-07:00,-0.983623,0.019737,-0.086729,2025-10-15T16:38:52.127-07:00,0.120906,-0.045314,-0.030439,2025-10-15T16:38:52.136-07:00
128.000000,0.477455,-0.043610,-0.048050,2025-10-15T16:38:53.130-07:00,-9.709659,0.829675,-1.059796,2025-10-15T16:38:53.130-07:00,-617.942847,55.008261,79.202127,2025-10-15T16:38:53.128-07:00,-50.263288,9.730532,6.934026,2025-10-15T16:38:53.130-07:00,376.183121,-1.000000,-1.000000,33.303851,406.612824,157.727378,15.121897,3.230895,-111.680061,6.913291,2025-10-15T16:38:54.000-07:00,0.476182,-0.045721,-0.050002,2025-10-15T16:38:53.132-07:00,-0.636790,-0.057259,-0.309356,-0.108728,0.946005,-0.038901,-0.084728,2025-10-15T16:38:53.130-07:00,-0.980906,0.080106,-0.109963,2025-10-15T16:38:53.132-07:00,0.099189,-0.050088,-0.020782,2025-10-15T16:38:53.130-07:00
129.000000,0.002124,-0.004764,0.005903,2025-10-15T16:38:54.135-07:00,-9.693123,1.161416,-0.927667,2025-10-15T16:38:54.135-07:00,-618.018794,53.885591,80.829599,2025-10-15T16:38:54.134-07:00,-50.331000,8.595316,8.581542,2025-10-15T16:38:54.135-07:00,376.250494,-1.000000,-1.000000,33.303826,406.680197,157.717017,15.988100,3.049437,-111.680054,6.915835,2025-10-15T16:38:55.065-07:00,0.000164,-0.007224,0.004053,2025-10-15T16:38:54.136-07:00,-0.394336,-0.067428,-0.192548,-0.095413,0.978323,-0.035080,-0.118711,2025-10-15T16:38:54.135-07:00,-0.981154,0.109998,-0.105442,2025-10-15T16:38:54.136-07:00,0.067670,-0.079856,-0.106388,2025-10-15T16:38:54.135-07:00
130.000000,-0.008982,0.015254,0.006258,2025-10-15T16:38:55.129-07:00,-9.707606,1.086515,-0.865842,2025-10-15T16:38:55.129-07:00,-617.692700,53.802611,81.217637,2025-10-15T16:38:55.130-07:00,-50.023912,8.508542,8.968788,2025-10-15T16:38:55.129-07:00,376.326191,-1.000000,-1.000000,33.303898,406.755894,157.703675,13.743909,3.000000,-111.680062,6.918900,2025-10-15T16:38:56.030-07:00,-0.010406,0.012775,0.004418,2025-10-15T16:38:55.130-07:00,-0.414442,-0.063375,-0.202807,-0.088956,0.976635,-0.032043,-0.111022,2025-10-15T16:38:55.129-07:00,-0.980444,0.104810,-0.091512,2025-10-15T16:38:55.130-07:00,0.093477,-0.061327,-0.029444,2025-10-15T16:38:55.129-07:00
131.000000,-0.029725,0.011266,-0.002436,2025-10-15T16:38:56.133-07:00,-9.713218,1.109825,-0.767309,2025-10-15T16:38:56.133-07:00,-617.719459,54.087003,81.650460,2025-10-15T16:38:56.136-07:00,-50.096305,8.796411,9.405799,2025-10-15T16:38:56.133-07:00,376.400619,-1.000000,-1.000000,33.303895,406.830322,157.688758,14.969597,7.361272,-111.680062,6.922167,2025-10-15T16:38:57.030-07:00,-0.031149,0.008879,-0.004589,2025-10-15T16:38:56.134-07:00,-0.433157,-0.063756,-0.212195,-0.078831,0.974775,-0.026249,-0.113415,2025-10-15T16:38:56.133-07:00,-0.980781,0.107379,-0.080866,2025-10-15T16:38:56.134-07:00,0.091070,-0.052300,-0.026030,2025-10-15T16:38:56.133-07:00
132.000000,0.883313,-0.130426,-0.012673,2025-10-15T16:38:57.128-07:00,-9.689172,1.289281,-0.748668,2025-10-15T16:38:57.128-07:00,-617.115345,52.240330,81.549685,2025-10-15T16:38:57.132-07:00,-49.473366,7.007115,9.328708,2025-10-15T16:38:57.128-07:00,376.468893,-1.000000,-1.000000,33.303893,406.898596,157.672206,15.570495,7.874046,-111.680061,6.925690,2025-10-15T16:38:58.053-07:00,0.883491,-0.132920,-0.014545,2025-10-15T16:38:57.129-07:00,-0.224462,-0.069371,-0.108656,-0.077102,0.980913,-0.032297,-0.131900,2025-10-15T16:38:57.128-07:00,-0.977412,0.131193,-0.077782,2025-10-15T16:38:57.129-07:00,0.101270,0.000104,-0.014558,2025-10-15T16:38:57.128-07:00
133.000000,0.425473,-0.088995,-0.053400,2025-10-15T16:38:58.132-07:00,-9.486203,2.307083,-0.841340,2025-10-15T16:38:58.132-07:00,-617.419104,45.884509,75.609729,2025-10-15T16:38:58.128-07:00,-49.891076,0.580880,3.404564,2025-10-15T16:38:58.132-07:00,376.521964,-1.000000,-1.000000,33.303891,406.951667,157.654196,16.691358,7.705224,-111.680060,6.929461,2025-10-15T16:38:59.065-07:00,0.422113,-0.091010,-0.053950,2025-10-15T16:38:58.133-07:00,0.768654,-0.092789,0.376273,-0.088547,0.916280,-0.085553,-0.237639,2025-10-15T16:38:58.132-07:00,-0.957464,0.233537,-0.100616,2025-10-15T16:38:58.133-07:00,0.118551,-0.003162,-0.163231,2025-10-15T16:38:58.132-07:00
134.000000,-0.003756,-0.004298,-0.102807,2025-10-15T16:38:59.136-07:00,-9.276463,3.073234,-0.760960,2025-10-15T16:38:59.136-07:00,-617.025219,49.052305,74.369374,2025-10-15T16:38:59.134-07:00,-49.690456,3.735605,2.154881,2025-10-15T16:38:59.136-07:00,376.557473,-1.000000,-1.000000,33.303891,406.987175,157.654159,17.734613,6.936373,-111.680060,6.929457,2025-10-15T16:39:00.064-07:00,-0.001335,-0.007253,-0.105641,2025-10-15T16:38:59.127-07:00,0.917701,-0.124267,0.442709,-0.081907,0.881395,-0.106540,-0.318905,2025-10-15T16:38:59.136-07:00,-0.937130,0.306695,-0.106094,2025-10-15T16:38:59.127-07:00,0.071545,-0.060718,-0.268459,2025-10-15T16:38:59.136-07:00
135.000000,0.005224,0.019394,0.002258,2025-10-15T16:39:00.130-07:00,-9.116856,3.561564,-0.604063,2025-10-15T16:39:00.130-07:00,-616.684006,51.643726,75.351764,2025-10-15T16:39:00.130-07:00,-49.249380,6.355050,3.126165,2025-10-15T16:39:00.130-07:00,376.579371,-1.000000,-1.000000,33.303890,407.009073,157.633204,18.560258,6.283343,-111.680060,6.933939,2025-10-15T16:39:01.065-07:00,0.004186,0.016630,0.000329,2025-10-15T16:39:00.132-07:00,0.899699,-0.152167,0.432606,-0.066159,0.881856,-0.109576,-0.371680,2025-10-15T16:39:00.130-07:00,-0.921571,0.359649,-0.068821,2025-10-15T16:39:00.132-07:00,0.073039,-0.033256,-0.068732,2025-10-15T16:39:00.130-07:00
136.000000,0.182819,0.063160,0.080128,2025-10-15T16:39:01.135-07:00,-9.210360,3.309225,0.051048,2025-10-15T16:39:01.135-07:00,-616.173266,48.949347,76.539136,2025-10-15T16:39:01.136-07:00,-48.666585,3.702608,4.289254,2025-10-15T16:39:01.135-07:00,376.590613,-1.000000,-1.000000,33.303888,407.020316,157.628328,19.479122,6.579414,-111.680059,6.935006,2025-10-15T16:39:02.064-07:00,0.180900,0.061016,0.078032,2025-10-15T16:39:01.136-07:00,1.114689,-0.147696,0.519979,0.004971,0.834147,-0.088487,-0.344353,2025-10-15T16:39:01.135-07:00,-0.921637,0.340190,-0.015833,2025-10-15T16:39:01.136-07:00,0.165269,0.026549,-0.208406,2025-10-15T16:39:01.135-07:00
137.000000,0.150422,-0.177622,0.024110,2025-10-15T16:39:02.129-07:00,-9.344705,2.921767,0.285604,2025-10-15T16:39:02.129-07:00,-616.054112,46.871010,77.823462,2025-10-15T16:39:02.132-07:00,-48.551212,1.598795,5.673606,2025-10-15T16:39:02.129-07:00,376.593993,-1.000000,-1.000000,33.303888,407.023696,157.628222,19.986410,6.080777,-111.680059,6.935013,2025-10-15T16:39:03.065-07:00,0.150350,-0.180894,0.022257,2025-10-15T16:39:02.130-07:00,1.103145,-0.136001,0.515652,0.030528,0.842479,-0.066055,-0.302550,2025-10-15T16:39:02.129-07:00,-0.938659,0.296003,0.016628,2025-10-15T16:39:02.130-07:00,0.137838,-0.014990,-0.111209,2025-10-15T16:39:02.129-07:00
138.000000,0.699044,-0.096455,0.128947,2025-10-15T16:39:03.133-07:00,-9.425596,2.630648,-0.053752,2025-10-15T16:39:03.133-07:00,-615.539046,45.326076,70.022062,2025-10-15T16:39:03.129-07:00,-48.073506,0.100163,-2.131112,2025-10-15T16:39:03.133-07:00,376.591833,-1.000000,-1.000000,33.303889,407.021536,300.840871,20.818381,4.363562,-111.680065,5.698171,2025-10-15T16:39:04.062-07:00,0.695977,-0.098062,0.126990,2025-10-15T16:39:03.135-07:00,1.582478,-0.095477,0.701629,-0.006154,0.691975,-0.097101,-0.272032,2025-10-15T16:39:03.133-07:00,-0.959698,0.279202,-0.037128,2025-10-15T16:39:03.135-07:00,0.016279,0.104097,-0.323914,2025-10-15T16:39:03.133-07:00
139.000000,-0.028166,0.036357,-0.015512,2025-10-15T16:39:04.128-07:00,-9.617013,1.822851,0.572618,2025-10-15T16:39:04.128-07:00,-614.732196,41.875215,69.339228,2025-10-15T16:39:04.135-07:00,-47.380350,-3.395186,-2.901729,2025-10-15T16:39:04.128-07:00,,,,,,,,,,,,-0.028891,0.033881,-0.017279,2025-10-15T16:39:04.129-07:00,1.887623,-0.078735,0.804171,0.059489,0.586075,-0.058137,-0.186990,2025-10-15T16:39:04.128-07:00,-0.973007,0.185483,0.045433,2025-10-15T16:39:04.129-07:00,0.103570,-0.007995,-0.126259,2025-10-15T16:39:04.128-07:00
140.000000,-0.050423,0.031107,0.053750,2025-10-15T16:39:05.130-07:00,-9.637661,1.610366,0.808678,2025-10-15T16:39:05.130-07:00,-614.680211,41.015625,70.455112,2025-10-15T16:39:05.131-07:00,-47.355829,-4.212746,-1.788134,2025-10-15T16:39:05.130-07:00,376.259894,-1.000000,-1.000000,33.303938,406.689597,351.506098,15.639486,18.585415,-111.680076,5.490374,2025-10-15T16:39:06.065-07:00,-0.050968,0.028408,0.051822,2025-10-15T16:39:05.133-07:00,1.850575,-0.082778,0.793273,0.083682,0.601710,-0.040681,-0.164983,2025-10-15T16:39:05.130-07:00,-0.971695,0.164452,0.072916,2025-10-15T16:39:05.133-07:00,0.103344,0.003494,-0.096437,2025-10-15T16:39:05.130-07:00
141.000000,-0.013644,-0.000638,-0.011533,2025-10-15T16:39:06.134-07:00,-9.647130,1.535344,0.862300,2025-10-15T16:39:06.134-07:00,-614.583530,40.642544,71.016620,2025-10-15T16:39:06.127-07:00,-47.040865,-4.605454,-1.215469,2025-10-15T16:39:06.134-07:00,376.238337,-1.000000,-1.000000,33.303938,406.668040,351.506846,16.751180,16.237544,-111.680076,5.490212,2025-10-15T16:39:07.065-07:00,-0.015370,-0.003060,-0.013104,2025-10-15T16:39:06.128-07:00,1.825557,-0.083121,0.785834,0.089147,0.611820,-0.034900,-0.157210,2025-10-15T16:39:06.134-07:00,-0.972634,0.157496,0.073099,2025-10-15T16:39:06.128-07:00,0.107505,0.009654,-0.141057,2025-10-15T16:39:06.134-07:00
142.000000,-0.027505,0.005842,0.000315,2025-10-15T16:39:07.128-07:00,-9.645960,1.584925,0.782441,2025-10-15T16:39:07.128-07:00,-614.037457,40.828799,70.687871,2025-10-15T16:39:07.133-07:00,-46.501600,-4.423699,-1.546781,2025-10-15T16:39:07.128-07:00,376.235307,-1.000000,-1.000000,33.303938,406.665010,351.508561,17.477006,13.788360,-111.680076,5.489842,2025-10-15T16:39:08.059-07:00,-0.028890,0.004103,-0.001529,2025-10-15T16:39:07.132-07:00,1.811311,-0.081724,0.781567,0.080939,0.617210,-0.038853,-0.162330,2025-10-15T16:39:07.128-07:00,-0.974610,0.161942,0.067776,2025-10-15T16:39:07.132-07:00,0.086875,0.001666,-0.123806,2025-10-15T16:39:07.128-07:00
143.000000,-4.216211,1.352219,0.252433,2025-10-15T16:39:08.133-07:00,-9.401187,2.141576,0.737833,2025-10-15T16:39:08.133-07:00,-614.189613,51.921679,76.874474,2025-10-15T16:39:08.129-07:00,-46.575592,6.367801,4.561946,2025-10-15T16:39:08.133-07:00,376.245273,-1.000000,-1.000000,33.303938,406.674976,351.510438,18.447617,11.624992,-111.680076,5.489438,2025-10-15T16:39:09.043-07:00,-4.242947,1.358322,0.255245,2025-10-15T16:39:08.136-07:00,0.440572,-0.081116,0.197061,0.076812,0.727368,-0.018801,-0.221895,2025-10-15T16:39:08.133-07:00,-0.900072,0.416185,-0.065960,2025-10-15T16:39:08.136-07:00,0.541944,1.898470,-1.386697,2025-10-15T16:39:08.133-07:00
144.000000,-0.913621,-0.054043,0.350191,2025-10-15T16:39:09.127-07:00,-9.051293,2.763940,2.389680,2025-10-15T16:39:09.127-07:00,-614.549628,55.758354,69.681821,2025-10-15T16:39:09.135-07:00,-46.362800,10.607150,-2.267117,2025-10-15T16:39:09.127-07:00,,,,,,,,,,,,-0.888912,-0.064986,0.342552,2025-10-15T16:39:09.131-07:00,2.221351,0.146865,-0.960587,0.258314,-0.160554,0.123481,-0.286184,2025-10-15T16:39:09.127-07:00,-0.895970,0.383330,0.273576,2025-10-15T16:39:09.131-07:00,0.294188,1.021280,0.282515,2025-10-15T16:39:09.127-07:00
145.000000,0.056025,-0.009558,0.040128,2025-10-15T16:39:10.131-07:00,-9.531453,1.885040,1.294311,2025-10-15T16:39:10.131-07:00,-614.755846,50.945466,64.904625,2025-10-15T16:39:10.131-07:00,-46.693334,5.733094,-7.190849,2025-10-15T16:39:10.131-07:00,,,,,,,,,,,,0.054422,-0.011785,0.039699,2025-10-15T16:39:10.135-07:00,2.751524,0.084673,-0.972746,0.134968,-0.198783,0.081503,-0.193522,2025-10-15T16:39:10.131-07:00,-0.959157,0.198938,0.120235,2025-10-15T16:39:10.135-07:00,0.129642,0.077729,-0.105495,2025-10-15T16:39:10.131-07:00
146.000000,0.024949,-0.049732,0.052509,2025-10-15T16:39:11.135-07:00,-9.609783,1.456998,1.284592,2025-10-15T16:39:11.135-07:00,-614.802577,49.245339,64.583530,2025-10-15T16:39:11.127-07:00,-46.718300,4.046890,-7.501341,2025-10-15T16:39:11.135-07:00,,,,,,,,,,,,0.024830,-0.053148,0.051093,2025-10-15T16:39:11.129-07:00,2.776473,0.078608,-0.977507,0.132922,-0.185557,0.061083,-0.149144,2025-10-15T16:39:11.135-07:00,-0.973887,0.148869,0.124491,2025-10-15T16:39:11.129-07:00,0.068300,0.009035,-0.058318,2025-10-15T16:39:11.135-07:00
147.000000,0.008544,-0.024324,0.044848,2025-10-15T16:39:12.130-07:00,-9.756851,0.692781,0.690325,2025-10-15T16:39:12.130-07:00,-614.609200,46.468088,61.752547,2025-10-15T16:39:12.133-07:00,-46.422729,1.256806,-10.352341,2025-10-15T16:39:12.130-07:00,,,,,,,,,,,,0.005113,-0.025384,0.041838,2025-10-15T16:39:12.134-07:00,2.819869,0.040487,-0.985625,0.070640,-0.161214,0.029217,-0.070707,2025-10-15T16:39:12.130-07:00,-0.979634,0.077951,0.056327,2025-10-15T16:39:12.134-07:00,0.143979,0.071826,-0.135285,2025-10-15T16:39:12.130-07:00
148.000000,-0.001759,0.002049,-0.002040,2025-10-15T16:39:13.134-07:00,-9.770475,0.571856,0.617261,2025-10-15T16:39:13.134-07:00,-614.472075,45.829067,61.419655,2025-10-15T16:39:13.129-07:00,-46.269887,0.603464,-10.703675,2025-10-15T16:39:13.134-07:00,,,,,,,,,,,,-0.002962,-0.000606,-0.003699,2025-10-15T16:39:13.128-07:00,2.821026,0.035776,-0.986123,0.063092,-0.160359,0.023749,-0.058346,2025-10-15T16:39:13.134-07:00,-0.985584,0.060190,0.053704,2025-10-15T16:39:13.128-07:00,0.107015,0.019196,-0.091399,2025-10-15T16:39:13.134-07:00
149.000000,0.837613,0.104665,-0.093877,2025-10-15T16:39:14.128-07:00,-9.733221,0.538697,0.949006,2025-10-15T16:39:14.128-07:00,-614.082752,47.386958,63.129028,2025-10-15T16:39:14.135-07:00,-45.847652,2.074808,-9.064870,2025-10-15T16:39:14.128-07:00,,,,,,,,,,,,0.849083,0.100798,-0.099764,2025-10-15T16:39:14.132-07:00,1.938510,0.051444,-0.987363,0.097202,-0.099712,0.024812,-0.054967,2025-10-15T16:39:14.128-07:00,-0.984727,0.079794,0.115786,2025-10-15T16:39:14.132-07:00,0.058416,0.223658,0.179540,2025-10-15T16:39:14.128-07:00
150.000000,1.455821,-0.312261,0.009108,2025-10-15T16:39:15.133-07:00,-9.728775,-0.179584,-0.367742,2025-10-15T16:39:15.133-07:00,-617.202271,57.060447,72.430827,2025-10-15T16:39:15.131-07:00,-48.848460,11.817291,0.271089,2025-10-15T16:39:15.133-07:00,,,,,,,,,,,,1.442419,-0.312342,0.009092,2025-10-15T16:39:15.136-07:00,-1.633134,0.001074,-0.714501,-0.037656,0.671157,-0.023533,0.018342,2025-10-15T16:39:15.133-07:00,-0.971181,0.006828,-0.093568,2025-10-15T16:39:15.136-07:00,0.220964,0.272184,-0.518530,2025-10-15T16:39:15.133-07:00
151.000000,0.131741,0.017609,-0.076793,2025-10-15T16:39:16.127-07:00,-9.746793,0.357612,-0.989460,2025-10-15T16:39:16.127-07:00,-618.704503,57.319051,76.295230,2025-10-15T16:39:16.127-07:00,-50.288887,11.958929,4.158432,2025-10-15T16:39:16.127-07:00,376.436970,33.330000,-1.000000,33.303964,406.866672,-1.000000,16.918770,20.930765,-111.680085,0.574093,2025-10-15T16:39:17.026-07:00,0.129423,0.014372,-0.076554,2025-10-15T16:39:16.131-07:00,-1.085546,-0.041786,-0.514869,-0.101172,0.855354,-0.033877,-0.036482,2025-10-15T16:39:16.127-07:00,-0.995602,0.036336,-0.115836,2025-10-15T16:39:16.131-07:00,-0.014391,-0.004630,-0.151810,2025-10-15T16:39:16.127-07:00
152.000000,0.000793,0.004051,0.022774,2025-10-15T16:39:17.131-07:00,-9.769635,0.288975,-0.795561,2025-10-15T16:39:17.131-07:00,-618.416557,56.195592,78.033294,2025-10-15T16:39:17.134-07:00,-49.928550,10.885374,5.908750,2025-10-15T16:39:17.131-07:00,376.325124,33.330000,-1.000000,33.303964,406.754827,-1.000000,17.951043,9.938425,-111.680085,0.573917,2025-10-15T16:39:18.026-07:00,-0.001137,0.001646,0.020734,2025-10-15T16:39:17.135-07:00,-1.003410,-0.032435,-0.479932,-0.081253,0.876211,-0.028522,-0.029473,2025-10-15T16:39:17.131-07:00,-0.984303,0.031556,-0.093400,2025-10-15T16:39:17.135-07:00,0.123324,0.021885,-0.125988,2025-10-15T16:39:17.131-07:00
153.000000,-0.015271,0.005152,0.002466,2025-10-15T16:39:18.136-07:00,-9.774853,0.214588,-0.758814,2025-10-15T16:39:18.136-07:00,-618.508858,56.135577,77.932478,2025-10-15T16:39:18.130-07:00,-49.993716,10.808775,5.818444,2025-10-15T16:39:18.136-07:00,376.307622,33.330000,-1.000000,33.303966,406.737325,-1.000000,18.314514,4.544808,-111.680085,0.574544,2025-10-15T16:39:19.024-07:00,-0.016718,0.002919,0.000415,2025-10-15T16:39:18.129-07:00,-1.020632,-0.028453,-0.487685,-0.077474,0.872086,-0.028452,-0.021884,2025-10-15T16:39:18.136-07:00,-0.985491,0.025210,-0.084477,2025-10-15T16:39:18.129-07:00,0.109785,0.032840,-0.069512,2025-10-15T16:39:18.136-07:00
154.000000,-0.002502,0.005096,-0.008339,2025-10-15T16:39:19.130-07:00,-9.774649,0.236677,-0.754782,2025-10-15T16:39:19.130-07:00,-618.442839,56.295841,77.873672,2025-10-15T16:39:19.136-07:00,-49.915115,10.960555,5.759008,2025-10-15T16:39:19.130-07:00,376.300154,33.330000,-1.000000,33.303966,406.729857,-1.000000,19.127787,3.500877,-111.680085,0.000000,2025-10-15T16:39:20.029-07:00,-0.003766,0.002690,-0.010418,2025-10-15T16:39:19.134-07:00,-1.026582,-0.029420,-0.490241,-0.077065,0.870649,-0.027635,-0.024137,2025-10-15T16:39:19.130-07:00,-0.985505,0.027999,-0.085232,2025-10-15T16:39:19.134-07:00,0.110132,0.037065,-0.081025,2025-10-15T16:39:19.130-07:00
155.000000,-0.511991,0.160145,-0.048879,2025-10-15T16:39:20.134-07:00,-9.780119,0.342401,-0.494266,2025-10-15T16:39:20.134-07:00,-617.248825,57.543344,78.107751,2025-10-15T16:39:20.132-07:00,-48.746431,12.177219,5.988522,2025-10-15T16:39:20.134-07:00,376.300154,33.330000,-1.000000,33.303966,406.729857,-1.000000,19.658402,3.000000,-111.680085,0.000000,2025-10-15T16:39:21.025-07:00,-0.513728,0.157643,-0.051691,2025-10-15T16:39:20.128-07:00,-1.110101,-0.026743,-0.524953,-0.050461,0.847431,-0.012739,-0.034924,2025-10-15T16:39:20.134-07:00,-0.982618,0.028370,-0.073841,2025-10-15T16:39:20.128-07:00,0.144713,-0.072199,-0.247631,2025-10-15T16:39:20.134-07:00
156.000000,0.577799,-0.186705,0.008764,2025-10-15T16:39:21.129-07:00,-9.672412,1.446212,0.545905,2025-10-15T16:39:21.129-07:00,-614.296161,64.662093,77.505701,2025-10-15T16:39:21.128-07:00,-45.632935,19.341439,5.376554,2025-10-15T16:39:21.129-07:00,376.330705,33.329939,180.000000,33.303974,406.760408,356.188496,20.082748,3.244707,-111.680095,1.085597,2025-10-15T16:39:22.028-07:00,0.574497,-0.191234,0.005245,2025-10-15T16:39:21.132-07:00,-1.543505,-0.029658,-0.685972,0.056483,0.702018,0.070534,-0.148108,2025-10-15T16:39:21.129-07:00,-0.978058,0.205469,0.034350,2025-10-15T16:39:21.132-07:00,0.079710,0.559309,-0.202067,2025-10-15T16:39:21.129-07:00
157.000000,1.442494,-0.083132,-0.020812,2025-10-15T16:39:22.133-07:00,-9.763514,0.431742,-0.344876,2025-10-15T16:39:22.133-07:00,-617.039593,46.056516,81.839360,2025-10-15T16:39:22.134-07:00,-48.119372,0.861154,9.733627,2025-10-15T16:39:22.133-07:00,376.322373,33.330000,-1.000000,33.303951,406.752075,-1.000000,33.650856,3.000000,-111.680121,0.545179,2025-10-15T16:39:23.028-07:00,1.439476,-0.086307,-0.018768,2025-10-15T16:39:22.127-07:00,-0.045609,-0.015547,-0.020966,-0.035373,0.969266,-0.019452,-0.044105,2025-10-15T16:39:22.133-07:00,-0.983275,0.049628,-0.041401,2025-10-15T16:39:22.127-07:00,0.114417,0.050421,-0.060028,2025-10-15T16:39:22.133-07:00
158.000000,-1.006489,0.185367,-0.127007,2025-10-15T16:39:23.127-07:00,-9.552300,1.816902,-1.178505,2025-10-15T16:39:23.127-07:00,-617.211394,54.212726,78.225527,2025-10-15T16:39:23.130-07:00,-48.525038,8.709094,6.080381,2025-10-15T16:39:23.127-07:00,376.289249,33.330000,-1.000000,33.303969,406.718952,-1.000000,32.403615,3.000000,-111.680121,0.596176,2025-10-15T16:39:24.029-07:00,-1.017882,0.191070,-0.129895,2025-10-15T16:39:23.131-07:00,-0.094865,-0.095929,-0.040854,-0.122759,0.969576,-0.053526,-0.186421,2025-10-15T16:39:23.127-07:00,-0.940494,0.197592,-0.125723,2025-10-15T16:39:23.131-07:00,0.337248,0.092833,-0.039947,2025-10-15T16:39:23.127-07:00
159.000000,-0.827596,0.312646,0.114430,2025-10-15T16:39:24.132-07:00,-9.653279,1.352470,0.836771,2025-10-15T16:39:24.132-07:00,-615.300814,63.090384,82.332248,2025-10-15T16:39:24.136-07:00,-47.033020,17.670684,10.169807,2025-10-15T16:39:24.132-07:00,376.298227,33.329474,180.000000,33.303964,406.727930,14.425494,31.783302,3.000000,-111.680091,0.962600,2025-10-15T16:39:25.029-07:00,-0.829409,0.308624,0.111955,2025-10-15T16:39:24.135-07:00,-1.278666,-0.027101,-0.590778,0.086236,0.789026,0.071315,-0.138450,2025-10-15T16:39:24.132-07:00,-0.982682,0.166475,0.064627,2025-10-15T16:39:24.135-07:00,0.014752,0.301090,-0.228945,2025-10-15T16:39:24.132-07:00
160.000000,0.231950,-0.093324,0.129665,2025-10-15T16:39:25.136-07:00,-9.790911,-0.172094,-0.292041,2025-10-15T16:39:25.136-07:00,-618.927151,55.663143,77.926762,2025-10-15T16:39:25.132-07:00,-50.536357,10.319392,5.789517,2025-10-15T16:39:25.136-07:00,376.364118,33.329710,180.000000,33.303924,406.793821,70.273792,32.826801,3.000000,-111.679965,1.399738,2025-10-15T16:39:26.030-07:00,0.229137,-0.097610,0.128429,2025-10-15T16:39:25.130-07:00,-1.216576,-0.000591,-0.571015,-0.029803,0.819414,-0.017258,0.017550,2025-10-15T16:39:25.136-07:00,-0.984266,-0.009077,-0.035625,2025-10-15T16:39:25.130-07:00,0.129723,0.087620,-0.054094,2025-10-15T16:39:25.136-07:00
161.000000,-0.013640,-0.002874,0.002953,2025-10-15T16:39:26.130-07:00,-9.783987,-0.459133,-0.473415,2025-10-15T16:39:26.130-07:00,-619.429750,54.000814,77.807282,2025-10-15T16:39:26.128-07:00,-51.035354,8.641766,5.660799,2025-10-15T16:39:26.130-07:00,376.394620,33.329657,180.000000,33.303907,406.824323,81.972188,38.410044,3.000000,-111.679810,2.137596,2025-10-15T16:39:27.031-07:00,-0.014453,-0.004278,0.001508,2025-10-15T16:39:26.134-07:00,-1.138762,0.006686,-0.539278,-0.048350,0.841437,-0.032973,0.046837,2025-10-15T16:39:26.130-07:00,-0.985309,-0.044855,-0.053609,2025-10-15T16:39:26.134-07:00,0.131015,0.019358,-0.053000,2025-10-15T16:39:26.130-07:00
162.000000,-0.007669,0.002988,0.004238,2025-10-15T16:39:27.135-07:00,-9.787461,-0.460087,-0.404386,2025-10-15T16:39:27.135-07:00,-619.254637,53.702793,78.448710,2025-10-15T16:39:27.135-07:00,-50.872637,8.343785,6.295083,2025-10-15T16:39:27.135-07:00,376.471877,3.180485,180.000000,33.304037,406.901580,16.209659,39.462100,5.429074,-111.680093,1.060116,2025-10-15T16:39:28.031-07:00,-0.009664,-0.000208,0.001780,2025-10-15T16:39:27.128-07:00,-1.148945,0.008478,-0.543532,-0.041293,0.838804,-0.030074,0.046933,2025-10-15T16:39:27.135-07:00,-0.987566,-0.043978,-0.044768,2025-10-15T16:39:27.128-07:00,0.100863,0.029526,-0.034817,2025-10-15T16:39:27.135-07:00
163.000000,-0.017644,-0.005506,-0.010423,2025-10-15T16:39:28.129-07:00,-9.790293,-0.425796,-0.371854,2025-10-15T16:39:28.129-07:00,-618.682745,53.958497,78.545913,2025-10-15T16:39:28.131-07:00,-50.306976,8.588615,6.397162,2025-10-15T16:39:28.129-07:00,376.517995,3.286010,180.000000,33.303991,406.947698,63.048181,15.548068,4.405200,-111.680078,1.095245,2025-10-15T16:39:29.029-07:00,-0.017355,-0.008187,-0.011459,2025-10-15T16:39:28.133-07:00,-1.156735,0.007806,-0.546774,-0.037964,0.836780,-0.027757,0.043433,2025-10-15T16:39:28.129-07:00,-0.990793,-0.043994,-0.043299,2025-10-15T16:39:28.133-07:00,0.076113,-0.006345,-0.052731,2025-10-15T16:39:28.129-07:00
164.000000,0.433382,-0.059046,-0.116466,2025-10-15T16:39:29.133-07:00,-9.722779,-0.083798,0.531561,2025-10-15T16:39:29.133-07:00,-617.250643,56.810371,79.018969,2025-10-15T16:39:29.127-07:00,-48.697147,11.473645,6.910919,2025-10-15T16:39:29.133-07:00,376.535799,2.536057,180.000000,33.303993,406.965502,63.476473,15.832867,4.881103,-111.680077,0.845233,2025-10-15T16:39:30.031-07:00,0.430140,-0.059278,-0.120978,2025-10-15T16:39:29.127-07:00,-1.396917,0.025263,-0.628564,0.054703,0.750683,0.008440,0.008531,2025-10-15T16:39:29.133-07:00,-0.967526,0.024368,0.011968,2025-10-15T16:39:29.127-07:00,0.237126,0.320495,-0.410864,2025-10-15T16:39:29.133-07:00
165.000000,0.498861,-0.060876,0.031638,2025-10-15T16:39:30.127-07:00,-9.630215,1.261625,-1.258497,2025-10-15T16:39:30.127-07:00,-619.283211,51.977081,78.879621,2025-10-15T16:39:30.133-07:00,-50.739547,6.695727,6.810586,2025-10-15T16:39:30.127-07:00,376.503867,1.613584,-1.000000,33.303993,406.933570,-1.000000,15.568087,4.841347,-111.680083,0.496146,2025-10-15T16:39:31.030-07:00,0.492108,-0.064267,0.031573,2025-10-15T16:39:30.131-07:00,-0.187228,-0.068807,-0.088156,-0.130006,0.984860,-0.060401,-0.129126,2025-10-15T16:39:30.127-07:00,-0.969742,0.162374,-0.154044,2025-10-15T16:39:30.131-07:00,0.117049,0.322883,-0.252706,2025-10-15T16:39:30.127-07:00
166.000000,-0.020402,0.074001,0.089091,2025-10-15T16:39:31.132-07:00,-9.746113,0.802167,-0.585878,2025-10-15T16:39:31.132-07:00,-618.808501,50.943259,82.269571,2025-10-15T16:39:31.129-07:00,-50.257318,5.661565,10.180238,2025-10-15T16:39:31.132-07:00,376.472708,1.788499,-1.000000,33.304000,406.902411,-1.000000,13.675749,3.654731,-111.680107,0.419435,2025-10-15T16:39:32.030-07:00,-0.021047,0.071804,0.089581,2025-10-15T16:39:31.136-07:00,-0.262074,-0.044464,-0.129055,-0.060098,0.990044,-0.024461,-0.081952,2025-10-15T16:39:31.132-07:00,-0.983078,0.085413,-0.063810,2025-10-15T16:39:31.136-07:00,0.107671,0.039549,-0.035206,2025-10-15T16:39:31.132-07:00
167.000000,-0.029199,0.012264,-0.033182,2025-10-15T16:39:32.136-07:00,-9.794808,0.375080,-0.261995,2025-10-15T16:39:32.136-07:00,-618.909768,48.831330,83.930750,2025-10-15T16:39:32.135-07:00,-50.342268,3.506279,11.858715,2025-10-15T16:39:32.136-07:00,376.450341,1.594571,-1.000000,33.304001,406.880044,-1.000000,12.299844,3.073193,-111.680120,0.471503,2025-10-15T16:39:33.032-07:00,-0.030433,0.009767,-0.035535,2025-10-15T16:39:32.130-07:00,-0.259621,-0.020678,-0.129165,-0.026740,0.991305,-0.010750,-0.038261,2025-10-15T16:39:32.136-07:00,-0.991765,0.033049,-0.033502,2025-10-15T16:39:32.130-07:00,0.068033,-0.052577,-0.066283,2025-10-15T16:39:32.136-07:00
168.000000,-0.021505,0.017276,0.009653,2025-10-15T16:39:33.130-07:00,-9.789081,0.577523,-0.068528,2025-10-15T16:39:33.130-07:00,-618.430667,49.921238,84.955437,2025-10-15T16:39:33.131-07:00,-49.820184,4.600442,12.867879,2025-10-15T16:39:33.130-07:00,376.434344,1.616996,-1.000000,33.303994,406.864047,-1.000000,10.875279,3.000000,-111.680132,0.386202,2025-10-15T16:39:34.031-07:00,-0.023007,0.014433,0.007742,2025-10-15T16:39:33.134-07:00,-0.269938,-0.029664,-0.134396,-0.007000,0.990448,0.000491,-0.058926,2025-10-15T16:39:33.130-07:00,-0.987750,0.057699,-0.015655,2025-10-15T16:39:33.134-07:00,0.094918,-0.015107,-0.082784,2025-10-15T16:39:33.130-07:00
169.000000,0.014490,0.000227,-0.006436,2025-10-15T16:39:34.135-07:00,-9.793766,0.500303,-0.034862,2025-10-15T16:39:34.135-07:00,-618.528743,49.720278,85.110906,2025-10-15T16:39:34.127-07:00,-49.925490,4.405644,13.031509,2025-10-15T16:39:34.135-07:00,376.408145,1.711778,-1.000000,33.303993,406.837847,-1.000000,9.162355,3.184350,-111.680135,0.354883,2025-10-15T16:39:35.032-07:00,0.012485,-0.001330,-0.007931,2025-10-15T16:39:34.129-07:00,-0.290452,-0.025506,-0.144623,-0.003559,0.989151,0.001933,-0.051039,2025-10-15T16:39:34.135-07:00,-0.988267,0.048540,-0.007951,2025-10-15T16:39:34.129-07:00,0.104762,-0.025220,-0.042323,2025-10-15T16:39:34.135-07:00
170.000000,-0.000938,-0.000056,-0.003187,2025-10-15T16:39:35.129-07:00,-9.791921,0.535457,-0.035099,2025-10-15T16:39:35.129-07:00,-618.517509,49.895593,85.130895,2025-10-15T16:39:35.134-07:00,-49.938557,4.578121,13.056765,2025-10-15T16:39:35.129-07:00,,,,,,,,,,,,-0.002405,-0.003241,-0.005414,2025-10-15T16:39:35.133-07:00,-0.288510,-0.027284,-0.143653,-0.003584,0.989248,0.002153,-0.054629,2025-10-15T16:39:35.129-07:00,-0.988006,0.051519,-0.008352,2025-10-15T16:39:35.133-07:00,0.097901,-0.029603,-0.047772,2025-10-15T16:39:35.129-07:00
171.000000,0.999181,-0.266086,-0.000909,2025-10-15T16:39:36.133-07:00,-9.721834,0.757143,-0.659695,2025-10-15T16:39:36.133-07:00,-617.790800,48.180412,81.356755,2025-10-15T16:39:36.130-07:00,-49.204827,2.931854,9.452718,2025-10-15T16:39:36.133-07:00,376.375177,0.926305,-1.000000,33.303985,406.804880,-1.000000,9.638490,3.615681,-111.680122,0.000000,2025-10-15T16:39:37.033-07:00,0.998028,-0.265289,-0.005383,2025-10-15T16:39:36.127-07:00,-0.079830,-0.034637,-0.038513,-0.068060,0.985963,-0.034968,-0.077377,2025-10-15T16:39:36.133-07:00,-0.981261,0.090189,-0.057575,2025-10-15T16:39:36.127-07:00,0.089873,0.117149,0.106592,2025-10-15T16:39:36.133-07:00
172.000000,0.933867,0.000421,0.360225,2025-10-15T16:39:37.128-07:00,-9.493161,1.932585,-0.768014,2025-10-15T16:39:37.128-07:00,-614.555859,42.095068,67.706411,2025-10-15T16:39:37.136-07:00,-46.079980,-3.079112,-4.371463,2025-10-15T16:39:37.128-07:00,376.424403,1.409993,-1.000000,33.303963,406.854106,-1.000000,10.891486,3.677043,-111.680119,0.169001,2025-10-15T16:39:38.031-07:00,0.922225,-0.003447,0.357513,2025-10-15T16:39:37.132-07:00,1.510436,-0.047535,0.679887,-0.081819,0.712547,-0.097822,-0.199048,2025-10-15T16:39:37.128-07:00,-0.925276,0.214502,-0.132308,2025-10-15T16:39:37.132-07:00,0.401701,0.179674,-0.563221,2025-10-15T16:39:37.128-07:00
173.000000,-0.021968,0.002482,-0.108174,2025-10-15T16:39:38.132-07:00,-9.750337,0.878538,0.518673,2025-10-15T16:39:38.132-07:00,-614.100471,37.753234,71.490848,2025-10-15T16:39:38.132-07:00,-45.749435,-7.451651,-0.598215,2025-10-15T16:39:38.132-07:00,376.361323,1.723636,-1.000000,33.303967,406.791026,-1.000000,11.061296,3.486266,-111.680116,0.398164,2025-10-15T16:39:39.032-07:00,-0.023869,0.001185,-0.108251,2025-10-15T16:39:38.136-07:00,1.670557,-0.049693,0.739492,0.053148,0.670776,-0.015335,-0.089725,2025-10-15T16:39:38.132-07:00,-1.009473,0.095554,0.046748,2025-10-15T16:39:38.136-07:00,-0.119849,0.059346,-0.048124,2025-10-15T16:39:38.132-07:00
174.000000,-0.039137,-0.012853,-0.002836,2025-10-15T16:39:39.136-07:00,-9.702049,1.271790,0.639669,2025-10-15T16:39:39.136-07:00,-614.614962,39.810369,72.715326,2025-10-15T16:39:39.128-07:00,-46.313771,-5.354143,0.630746,2025-10-15T16:39:39.136-07:00,376.336822,1.862677,-1.000000,33.303989,406.766525,-1.000000,12.308410,3.631900,-111.680114,0.694407,2025-10-15T16:39:40.031-07:00,-0.040619,-0.014468,-0.004913,2025-10-15T16:39:39.130-07:00,1.614889,-0.068661,0.719022,0.065839,0.690965,-0.024234,-0.130057,2025-10-15T16:39:39.136-07:00,-0.979341,0.129820,0.054474,2025-10-15T16:39:39.130-07:00,0.108505,-0.001580,-0.095933,2025-10-15T16:39:39.136-07:00
175.000000,-0.044619,0.003152,-0.008947,2025-10-15T16:39:40.131-07:00,-9.711869,1.291390,0.419395,2025-10-15T16:39:40.131-07:00,-614.799716,39.868796,72.021413,2025-10-15T16:39:40.134-07:00,-46.544462,-5.282911,-0.058428,2025-10-15T16:39:40.131-07:00,376.298267,2.052500,180.000000,33.304008,406.727970,332.836031,12.949102,3.518763,-111.680116,0.683810,2025-10-15T16:39:41.031-07:00,-0.047633,0.001422,-0.010759,2025-10-15T16:39:40.134-07:00,1.591416,-0.061559,0.711610,0.043155,0.699073,-0.032046,-0.132072,2025-10-15T16:39:40.131-07:00,-0.979345,0.130632,0.024790,2025-10-15T16:39:40.134-07:00,0.099042,-0.013445,-0.178933,2025-10-15T16:39:40.131-07:00
176.000000,-0.006286,0.014562,0.000794,2025-10-15T16:39:41.135-07:00,-9.705526,1.340057,0.419159,2025-10-15T16:39:41.135-07:00,-614.932995,39.982939,72.390872,2025-10-15T16:39:41.130-07:00,-46.688893,-5.157049,0.309638,2025-10-15T16:39:41.135-07:00,376.290782,33.330000,-1.000000,33.304015,406.720485,-1.000000,10.027516,3.598891,-111.680119,0.346806,2025-10-15T16:39:42.032-07:00,-0.007100,0.010557,-0.001519,2025-10-15T16:39:41.129-07:00,1.560327,-0.063808,0.700523,0.043161,0.709997,-0.032854,-0.137077,2025-10-15T16:39:41.135-07:00,-0.980060,0.136602,0.030136,2025-10-15T16:39:41.129-07:00,0.091468,0.000571,-0.126956,2025-10-15T16:39:41.135-07:00
177.000000,0.309572,-0.100927,0.024786,2025-10-15T16:39:42.129-07:00,-9.692380,1.364160,0.554067,2025-10-15T16:39:42.129-07:00,-614.120634,40.190197,72.551378,2025-10-15T16:39:42.136-07:00,-45.857672,-4.956294,0.514694,2025-10-15T16:39:42.129-07:00,376.322201,33.330000,-1.000000,33.304023,406.751904,-1.000000,11.496806,3.586249,-111.680111,0.568798,2025-10-15T16:39:43.033-07:00,0.305572,-0.100690,0.022600,2025-10-15T16:39:42.133-07:00,1.590787,-0.069009,0.709909,0.057139,0.698746,-0.029390,-0.139570,2025-10-15T16:39:42.129-07:00,-0.981685,0.144413,0.045082,2025-10-15T16:39:42.133-07:00,0.068418,0.050266,-0.110126,2025-10-15T16:39:42.129-07:00
178.000000,0.249845,0.020546,0.029751,2025-10-15T16:39:43.134-07:00,-9.740512,1.087347,0.125877,2025-10-15T16:39:43.134-07:00,-613.692301,39.884995,65.763636,2025-10-15T16:39:43.132-07:00,-45.386816,-5.263041,-6.272012,2025-10-15T16:39:43.134-07:00,376.331300,33.330000,-1.000000,33.304018,406.761003,-1.000000,12.348680,3.478577,-111.680093,0.431368,2025-10-15T16:39:43.999-07:00,0.251591,0.014453,0.030265,2025-10-15T16:39:43.127-07:00,2.031319,-0.034672,0.847731,0.012905,0.526141,-0.044005,-0.111129,2025-10-15T16:39:43.134-07:00,-0.990349,0.105704,-0.002538,2025-10-15T16:39:43.127-07:00,0.032611,-0.049792,-0.151482,2025-10-15T16:39:43.134-07:00
179.000000,0.217490,-0.096278,0.006757,2025-10-15T16:39:44.128-07:00,-9.775600,0.705550,0.192864,2025-10-15T16:39:44.128-07:00,-613.828459,38.938945,64.752587,2025-10-15T16:39:44.128-07:00,-45.496653,-6.207150,-7.220590,2025-10-15T16:39:44.128-07:00,376.328119,1.795978,-1.000000,33.303997,406.757822,-1.000000,13.392674,3.495042,-111.680092,0.219207,2025-10-15T16:39:44.999-07:00,0.217226,-0.099981,0.000999,2025-10-15T16:39:44.132-07:00,2.110652,-0.026185,0.868696,0.019728,0.492602,-0.026069,-0.072014,2025-10-15T16:39:44.128-07:00,-0.969782,0.079796,0.011544,2025-10-15T16:39:44.132-07:00,0.256485,0.079135,-0.075514,2025-10-15T16:39:44.128-07:00
180.000000,-3.216299,1.050687,-0.307128,2025-10-15T16:39:45.132-07:00,-9.302148,2.344988,-0.560201,2025-10-15T16:39:45.132-07:00,-614.584684,49.664103,69.955736,2025-10-15T16:39:45.134-07:00,-46.177927,4.366473,-2.421944,2025-10-15T16:39:45.132-07:00,376.247746,1.902364,-1.000000,33.303996,406.677449,-1.000000,14.270691,3.458678,-111.680105,0.634121,2025-10-15T16:39:45.999-07:00,-3.238133,1.054032,-0.307918,2025-10-15T16:39:45.136-07:00,1.219493,-0.097259,0.502407,-0.061098,0.682620,-0.096582,-0.245045,2025-10-15T16:39:45.132-07:00,-0.920242,0.343503,-0.160143,2025-10-15T16:39:45.136-07:00,0.273573,1.014103,-0.989418,2025-10-15T16:39:45.132-07:00
181.000000,-1.825937,0.237016,0.586792,2025-10-15T16:39:46.127-07:00,-8.469133,1.477704,3.757281,2025-10-15T16:39:46.127-07:00,-615.365453,53.464872,81.376077,2025-10-15T16:39:46.130-07:00,-46.863463,8.622207,9.514988,2025-10-15T16:39:46.127-07:00,376.214003,33.330000,-1.000000,33.303987,406.643705,-1.000000,14.331413,3.330458,-111.680118,0.572480,2025-10-15T16:39:46.999-07:00,-1.802593,0.231314,0.581901,2025-10-15T16:39:46.130-07:00,0.538473,0.224195,-0.858998,0.421867,0.020394,0.037080,-0.155669,2025-10-15T16:39:46.127-07:00,-0.774015,0.460548,0.367940,2025-10-15T16:39:46.130-07:00,0.917860,3.074234,-0.166251,2025-10-15T16:39:46.127-07:00
182.000000,-0.617906,-0.018554,-0.076530,2025-10-15T16:39:47.131-07:00,-9.356525,0.446967,2.448168,2025-10-15T16:39:47.131-07:00,-616.456856,45.092602,69.744195,2025-10-15T16:39:47.137-07:00,-47.726046,-0.007508,-2.239114,2025-10-15T16:39:47.131-07:00,376.202287,33.328482,180.000000,33.303958,406.631989,159.046139,10.571622,3.761177,-111.680090,2.054542,2025-10-15T16:39:47.999-07:00,-0.634424,-0.020534,-0.078025,2025-10-15T16:39:47.135-07:00,1.400145,0.135854,-0.968437,0.256014,-0.147917,0.004775,-0.045627,2025-10-15T16:39:47.131-07:00,-0.942003,0.108357,0.224257,2025-10-15T16:39:47.135-07:00,0.083445,0.586228,-0.278046,2025-10-15T16:39:47.131-07:00
183.000000,-0.069879,-0.026183,0.022937,2025-10-15T16:39:48.135-07:00,-9.681029,0.925287,1.255118,2025-10-15T16:39:48.135-07:00,-615.053500,44.323685,65.576257,2025-10-15T16:39:48.133-07:00,-46.272386,-0.755590,-6.443961,2025-10-15T16:39:48.135-07:00,376.253020,33.329440,180.000000,33.303911,406.682723,171.091857,18.098124,3.550759,-111.680064,1.609282,2025-10-15T16:39:48.999-07:00,-0.069447,-0.030961,0.022326,2025-10-15T16:39:48.129-07:00,2.593706,0.074699,-0.958440,0.128932,-0.272502,0.027963,-0.094498,2025-10-15T16:39:48.135-07:00,-0.976350,0.090650,0.114831,2025-10-15T16:39:48.129-07:00,0.105604,-0.030318,-0.122563,2025-10-15T16:39:48.135-07:00
184.000000,-0.068199,-0.019059,0.012635,2025-10-15T16:39:49.130-07:00,-9.721941,0.840890,0.969582,2025-10-15T16:39:49.130-07:00,-614.559155,44.088857,64.593706,2025-10-15T16:39:49.129-07:00,-45.749922,-0.994228,-7.413459,2025-10-15T16:39:49.130-07:00,376.222578,2.960645,180.000000,33.303901,406.652280,167.453065,19.305155,3.637701,-111.680066,0.986739,2025-10-15T16:39:49.999-07:00,-0.070996,-0.021377,0.011287,2025-10-15T16:39:49.133-07:00,2.587466,0.059468,-0.959152,0.099403,-0.274982,0.027680,-0.085853,2025-10-15T16:39:49.130-07:00,-0.983168,0.089801,0.091804,2025-10-15T16:39:49.133-07:00,0.081721,0.033901,-0.073422,2025-10-15T16:39:49.130-07:00
185.000000,0.037370,-0.021002,0.017294,2025-10-15T16:39:50.134-07:00,-9.740567,0.747053,0.850332,2025-10-15T16:39:50.134-07:00,-614.431301,43.716603,63.974971,2025-10-15T16:39:50.135-07:00,-45.614490,-1.370497,-8.027366,2025-10-15T16:39:50.134-07:00,376.215542,33.330000,-1.000000,33.303895,406.645245,-1.000000,13.974675,3.314185,-111.680061,0.828619,2025-10-15T16:39:50.999-07:00,0.036453,-0.023609,0.014958,2025-10-15T16:39:50.128-07:00,2.593189,0.052189,-0.960551,0.087080,-0.271924,0.024863,-0.076253,2025-10-15T16:39:50.134-07:00,-0.982581,0.079091,0.076550,2025-10-15T16:39:50.128-07:00,0.093572,0.027558,-0.104446,2025-10-15T16:39:50.134-07:00
186.000000,0.015655,-0.013878,0.004091,2025-10-15T16:39:51.128-07:00,-9.762911,0.641870,0.664644,2025-10-15T16:39:51.128-07:00,-614.366426,43.353177,63.180751,2025-10-15T16:39:51.131-07:00,-45.528026,-1.740685,-8.823468,2025-10-15T16:39:51.128-07:00,376.218067,33.330000,-1.000000,33.303894,406.647770,-1.000000,14.505300,3.084340,-111.680064,0.741880,2025-10-15T16:39:51.999-07:00,0.013641,-0.016047,0.002041,2025-10-15T16:39:51.132-07:00,2.605291,0.041419,-0.962890,0.067974,-0.265727,0.022555,-0.065500,2025-10-15T16:39:51.128-07:00,-0.985201,0.066818,0.058635,2025-10-15T16:39:51.132-07:00,0.107050,0.014749,-0.084885,2025-10-15T16:39:51.128-07:00
187.000000,-0.001385,-0.010982,-0.009469,2025-10-15T16:39:52.133-07:00,-9.768727,0.659879,0.551136,2025-10-15T16:39:52.133-07:00,-613.759084,43.424866,62.747438,2025-10-15T16:39:52.127-07:00,-44.933359,-1.673370,-9.259102,2025-10-15T16:39:52.133-07:00,376.202988,33.330000,-1.000000,33.303889,406.632691,-1.000000,15.566077,3.000000,-111.680063,0.760691,2025-10-15T16:39:52.999-07:00,-0.002622,-0.013715,-0.011580,2025-10-15T16:39:52.136-07:00,2.604248,0.036087,-0.962936,0.056358,-0.266105,0.024972,-0.067340,2025-10-15T16:39:52.133-07:00,-0.985363,0.067993,0.049454,2025-10-15T16:39:52.136-07:00,0.104738,0.005396,-0.066771,2025-10-15T16:39:52.133-07:00
188.000000,-0.003603,-0.007869,-0.007135,2025-10-15T16:39:53.127-07:00,-9.770732,0.712941,0.438477,2025-10-15T16:39:53.127-07:00,-614.064903,43.502670,62.205129,2025-10-15T16:39:53.133-07:00,-45.228475,-1.595786,-9.796207,2025-10-15T16:39:53.127-07:00,376.205837,33.330000,-1.000000,33.303886,406.635539,-1.000000,16.536276,3.000000,-111.680068,0.687741,2025-10-15T16:39:53.999-07:00,-0.004952,-0.010149,-0.009430,2025-10-15T16:39:53.131-07:00,2.598114,0.031346,-0.962202,0.044846,-0.268944,0.029016,-0.072764,2025-10-15T16:39:53.127-07:00,-0.983978,0.073929,0.038763,2025-10-15T16:39:53.131-07:00,0.118852,0.011696,-0.061659,2025-10-15T16:39:53.127-07:00
189.000000,0.228591,-0.123250,0.013457,2025-10-15T16:39:54.131-07:00,-9.768794,0.714217,-0.047551,2025-10-15T16:39:54.131-07:00,-613.391092,44.600533,59.739339,2025-10-15T16:39:54.129-07:00,-44.567208,-0.517077,-12.226731,2025-10-15T16:39:54.131-07:00,376.211529,33.330000,-1.000000,33.303939,406.641232,-1.000000,16.723632,3.150932,-111.680090,0.000000,2025-10-15T16:39:54.999-07:00,0.226457,-0.126084,0.011641,2025-10-15T16:39:54.135-07:00,2.667991,0.006155,-0.970376,-0.004844,-0.234206,0.035044,-0.072899,2025-10-15T16:39:54.131-07:00,-0.985785,0.077556,-0.004133,2025-10-15T16:39:54.135-07:00,0.105794,0.045883,0.014755,2025-10-15T16:39:54.131-07:00
190.000000,-1.158956,0.572057,-0.291285,2025-10-15T16:39:55.136-07:00,-9.371472,2.043942,0.967727,2025-10-15T16:39:55.136-07:00,-614.398519,48.338444,66.909405,2025-10-15T16:39:55.135-07:00,-45.573703,3.158442,-5.295937,2025-10-15T16:39:55.136-07:00,376.209003,33.330000,-1.000000,33.303940,406.638706,-1.000000,17.468340,3.000000,-111.680091,0.031407,2025-10-15T16:39:55.999-07:00,-1.149679,0.566342,-0.289697,2025-10-15T16:39:55.129-07:00,2.385500,0.095669,-0.899693,0.106039,-0.363563,0.064624,-0.213224,2025-10-15T16:39:55.136-07:00,-0.955459,0.206485,0.081921,2025-10-15T16:39:55.129-07:00,0.001796,-0.051230,-0.178360,2025-10-15T16:39:55.136-07:00
191.000000,-1.156703,0.468413,0.328660,2025-10-15T16:39:56.130-07:00,-8.435060,4.760628,1.276468,2025-10-15T16:39:56.130-07:00,-612.838436,58.072458,84.033546,2025-10-15T16:39:56.131-07:00,-44.027091,12.968064,11.958581,2025-10-15T16:39:56.130-07:00,376.213471,33.330000,-1.000000,33.303909,406.643173,-1.000000,17.853570,3.000000,-111.680102,0.563042,2025-10-15T16:39:56.999-07:00,-1.167524,0.468165,0.327030,2025-10-15T16:39:56.134-07:00,0.949777,0.253512,-0.411229,0.152020,-0.846399,0.055562,-0.507920,2025-10-15T16:39:56.130-07:00,-0.834898,0.512871,0.137975,2025-10-15T16:39:56.134-07:00,0.235504,0.270765,0.084969,2025-10-15T16:39:56.130-07:00
192.000000,1.102033,-0.337386,0.113519,2025-10-15T16:39:57.134-07:00,-9.274100,3.156514,-0.035772,2025-10-15T16:39:57.134-07:00,-615.998270,53.227672,82.480518,2025-10-15T16:39:57.127-07:00,-47.115244,8.323168,10.593008,2025-10-15T16:39:57.134-07:00,376.202721,33.330000,-1.000000,33.303906,406.632424,-1.000000,18.609088,3.000000,-111.680104,0.563204,2025-10-15T16:39:57.999-07:00,1.109414,-0.340471,0.115696,2025-10-15T16:39:57.128-07:00,0.456667,0.157730,-0.220275,-0.003661,-0.951357,0.038342,-0.327842,2025-10-15T16:39:57.134-07:00,-0.968364,0.387820,0.005313,2025-10-15T16:39:57.128-07:00,-0.225874,0.619705,0.086708,2025-10-15T16:39:57.134-07:00
193.000000,2.327338,0.119081,0.419350,2025-10-15T16:39:58.129-07:00,-9.327786,-1.520381,1.323152,2025-10-15T16:39:58.129-07:00,-616.886802,38.564549,64.426745,2025-10-15T16:39:58.133-07:00,-48.034190,-6.463478,-7.311793,2025-10-15T16:39:58.129-07:00,376.202979,33.330000,-1.000000,33.303897,406.632682,-1.000000,19.373867,3.000000,-111.680129,0.477738,2025-10-15T16:39:58.999-07:00,2.332036,0.120015,0.416834,2025-10-15T16:39:58.132-07:00,-0.325613,0.097423,-0.929418,0.140092,-0.056666,-0.083965,0.159371,2025-10-15T16:39:58.129-07:00,-0.905979,-0.087092,-0.014537,2025-10-15T16:39:58.132-07:00,0.440578,0.739599,-1.462606,2025-10-15T16:39:58.129-07:00
194.000000,0.010044,-0.087433,0.230221,2025-10-15T16:39:59.133-07:00,-7.993789,-5.620195,0.497869,2025-10-15T16:39:59.133-07:00,-613.331306,27.069912,59.447199,2025-10-15T16:39:59.129-07:00,-44.726485,-17.960138,-12.360343,2025-10-15T16:39:59.133-07:00,376.255453,33.330000,-1.000000,33.303943,406.685156,-1.000000,14.431909,3.000000,-111.680100,0.143523,2025-10-15T16:39:59.999-07:00,0.002849,-0.085313,0.230511,2025-10-15T16:39:59.127-07:00,-2.633704,0.103581,-0.919626,0.061291,0.247974,-0.283759,0.611485,2025-10-15T16:39:59.133-07:00,-0.776607,-0.587018,0.059175,2025-10-15T16:39:59.127-07:00,0.397662,-0.146287,0.102243,2025-10-15T16:39:59.133-07:00
195.000000,0.082213,0.008162,0.005032,2025-10-15T16:40:00.127-07:00,-7.501482,-6.312236,-0.002611,2025-10-15T16:40:00.127-07:00,-611.430690,24.479414,58.032521,2025-10-15T16:40:00.135-07:00,-42.837635,-20.623130,-13.790387,2025-10-15T16:40:00.127-07:00,376.238629,33.330000,-1.000000,33.303943,406.668332,-1.000000,15.412913,3.000000,-111.680100,0.143512,2025-10-15T16:40:00.999-07:00,0.081346,0.005271,0.002598,2025-10-15T16:40:00.131-07:00,-2.574252,0.095776,-0.901735,-0.000271,0.262868,-0.329089,0.699330,2025-10-15T16:40:00.127-07:00,-0.751525,-0.640020,-0.008153,2025-10-15T16:40:00.131-07:00,0.128166,0.036689,-0.069444,2025-10-15T16:40:00.127-07:00
196.000000,0.020264,-0.013767,-0.003108,2025-10-15T16:40:01.132-07:00,-7.492446,-6.320069,-0.294202,2025-10-15T16:40:01.132-07:00,-612.653104,24.874088,57.376169,2025-10-15T16:40:01.131-07:00,-44.126831,-20.168053,-14.475757,2025-10-15T16:40:01.132-07:00,376.226846,33.330000,-1.000000,33.303943,406.656548,-1.000000,16.196283,3.000000,-111.680100,0.143685,2025-10-15T16:40:01.999-07:00,0.018507,-0.016253,-0.005668,2025-10-15T16:40:01.135-07:00,-2.518894,0.087530,-0.896034,-0.039240,0.281290,-0.332151,0.700331,2025-10-15T16:40:01.132-07:00,-0.751341,-0.641050,-0.041083,2025-10-15T16:40:01.135-07:00,0.126144,0.033238,-0.106578,2025-10-15T16:40:01.132-07:00
197.000000,0.016747,-0.006748,0.004858,2025-10-15T16:40:02.136-07:00,-7.432976,-6.382194,-0.429658,2025-10-15T16:40:02.136-07:00,-612.215690,24.638125,56.985036,2025-10-15T16:40:02.127-07:00,-43.690024,-20.403859,-14.871180,2025-10-15T16:40:02.136-07:00,,,,,,,,,,,,0.016293,-0.008798,0.000712,2025-10-15T16:40:02.130-07:00,-2.492655,0.084910,-0.891758,-0.057738,0.289382,-0.337348,0.708659,2025-10-15T16:40:02.136-07:00,-0.736107,-0.650563,-0.054304,2025-10-15T16:40:02.130-07:00,0.222789,-0.000677,-0.094778,2025-10-15T16:40:02.136-07:00
